File: XRD/Test_XRD/0_rawdata/02_Sample 2_XRD001.xy
   4.5000      162
   4.5450      147
   4.5900      157
   4.6350      142
   4.6800      159
   4.7250      153
   4.7700      148
   4.8150      165
   4.8600      180
   4.9050      152
   4.9500      175
   4.9950      170
   5.0400      161
   5.0850      161
   5.1300      195
   5.1750      175
   5.2200      171
   5.2650      149
   5.3100      150
   5.3550      146
   5.4000      163
   5.4450      162
   5.4900      167
   5.5350      169
   5.5800      179
   5.6250      159
   5.6700      155
   5.7150      175
   5.7600      167
   5.8050      172
   5.8500      174
   5.8950      185
   5.9400      168
   5.9850      178
   6.0300      173
   6.0750      198
   6.1200      196
   6.1650      189
   6.2100      186
   6.2550      214
   6.3000      186
   6.3450      194
   6.3900      212
   6.4350      241
   6.4800      234
   6.5250      227
   6.5700      212
   6.6150      224
   6.6600      267
   6.7050      265
   6.7500      281
   6.7950      332
   6.8400      454
   6.8850      505
   6.9300      658
   6.9750      818
   7.0200     1109
   7.0650     1457
   7.1100     2005
   7.1550     2915
   7.2000     4438
   7.2450     5036
   7.2900     1190
   7.3350      528
   7.3800      433
   7.4250      398
   7.4700      426
   7.5150      522
   7.5600      609
   7.6050      826
   7.6500      991
   7.6950     1312
   7.7400     2031
   7.7850     3393
   7.8300     2298
   7.8750      484
   7.9200      332
   7.9650      256
   8.0100      216
   8.0550      186
   8.1000      187
   8.1450      178
   8.1900      183
   8.2350      156
   8.2800      161
   8.3250      152
   8.3700      154
   8.4150      161
   8.4600      166
   8.5050      161
   8.5500      153
   8.5950      138
   8.6400      154
   8.6850      150
   8.7300      155
   8.7750      161
   8.8200      154
   8.8650      157
   8.9100      144
   8.9550      162
   9.0000      146
   9.0450      165
   9.0900      148
   9.1350      164
   9.1800      152
   9.2250      129
   9.2700      149
   9.3150      157
   9.3600      138
   9.4050      162
   9.4500      150
   9.4950      146
   9.5400      147
   9.5850      151
   9.6300      150
   9.6750      159
   9.7200      155
   9.7650      166
   9.8100      172
   9.8550      164
   9.9000      185
   9.9450      226
   9.9900      242
  10.0350      287
  10.0800      427
  10.1250      447
  10.1700      285
  10.2150      210
  10.2600      225
  10.3050      263
  10.3500      282
  10.3950      259
  10.4400      210
  10.4850      191
  10.5300      187
  10.5750      186
  10.6200      214
  10.6650      260
  10.7100      304
  10.7550      278
  10.8000      329
  10.8450      424
  10.8900      322
  10.9350      217
  10.9800      215
  11.0250      195
  11.0700      186
  11.1150      162
  11.1600      166
  11.2050      172
  11.2500      166
  11.2950      156
  11.3400      166
  11.3850      150
  11.4300      159
  11.4750      148
  11.5200      151
  11.5650      157
  11.6100      120
  11.6550      141
  11.7000      169
  11.7450      180
  11.7900      155
  11.8350      166
  11.8800      144
  11.9250      141
  11.9700      154
  12.0150      157
  12.0600      159
  12.1050      178
  12.1500      219
  12.1950      242
  12.2400      227
  12.2850      181
  12.3300      158
  12.3750      164
  12.4200      175
  12.4650      175
  12.5100      167
  12.5550      189
  12.6000      216
  12.6450      223
  12.6900      307
  12.7350      299
  12.7800      387
  12.8250      556
  12.8700      621
  12.9150      364
  12.9600      227
  13.0050      201
  13.0500      198
  13.0950      197
  13.1400      199
  13.1850      224
  13.2300      257
  13.2750      234
  13.3200      229
  13.3650      284
  13.4100      368
  13.4550      429
  13.5000      316
  13.5450      303
  13.5900      347
  13.6350      497
  13.6800      802
  13.7250      465
  13.7700      269
  13.8150      217
  13.8600      229
  13.9050      174
  13.9500      168
  13.9950      162
  14.0400      181
  14.0850      193
  14.1300      203
  14.1750      221
  14.2200      193
  14.2650      190
  14.3100      178
  14.3550      237
  14.4000      211
  14.4450      239
  14.4900      233
  14.5350      202
  14.5800      162
  14.6250      165
  14.6700      166
  14.7150      162
  14.7600      158
  14.8050      196
  14.8500      187
  14.8950      245
  14.9400      359
  14.9850      466
  15.0300      656
  15.0750      827
  15.1200      506
  15.1650      241
  15.2100      231
  15.2550      214
  15.3000      237
  15.3450      273
  15.3900      368
  15.4350      328
  15.4800      234
  15.5250      206
  15.5700      201
  15.6150      226
  15.6600      205
  15.7050      274
  15.7500      376
  15.7950      469
  15.8400      493
  15.8850      432
  15.9300      472
  15.9750      639
  16.0200      425
  16.0650      238
  16.1100      214
  16.1550      174
  16.2000      224
  16.2450      240
  16.2900      261
  16.3350      327
  16.3800      570
  16.4250      937
  16.4700     1397
  16.5150      988
  16.5600      827
  16.6050      979
  16.6500      668
  16.6950      356
  16.7400      285
  16.7850      236
  16.8300      233
  16.8750      246
  16.9200      246
  16.9650      303
  17.0100      318
  17.0550      421
  17.1000      499
  17.1450      414
  17.1900      228
  17.2350      211
  17.2800      168
  17.3250      218
  17.3700      191
  17.4150      179
  17.4600      160
  17.5050      164
  17.5500      177
  17.5950      191
  17.6400      172
  17.6850      192
  17.7300      210
  17.7750      218
  17.8200      208
  17.8650      199
  17.9100      186
  17.9550      203
  18.0000      234
  18.0450      264
  18.0900      308
  18.1350      363
  18.1800      544
  18.2250      828
  18.2700      964
  18.3150      924
  18.3600     1217
  18.4050     1072
  18.4500      624
  18.4950      403
  18.5400      327
  18.5850      297
  18.6300      280
  18.6750      318
  18.7200      421
  18.7650      634
  18.8100      750
  18.8550      518
  18.9000      549
  18.9450      819
  18.9900      935
  19.0350      572
  19.0800      307
  19.1250      247
  19.1700      249
  19.2150      191
  19.2600      208
  19.3050      217
  19.3500      215
  19.3950      231
  19.4400      217
  19.4850      217
  19.5300      220
  19.5750      215
  19.6200      233
  19.6650      224
  19.7100      287
  19.7550      324
  19.8000      535
  19.8450      832
  19.8900     1265
  19.9350     1173
  19.9800      748
  20.0250      719
  20.0700      602
  20.1150      530
  20.1600      447
  20.2050      330
  20.2500      350
  20.2950      407
  20.3400      518
  20.3850      510
  20.4300      409
  20.4750      399
  20.5200      508
  20.5650      632
  20.6100      461
  20.6550      323
  20.7000      310
  20.7450      359
  20.7900      441
  20.8350      522
  20.8800      605
  20.9250      397
  20.9700      357
  21.0150      325
  21.0600      316
  21.1050      374
  21.1500      518
  21.1950      635
  21.2400      636
  21.2850      458
  21.3300      439
  21.3750      372
  21.4200      379
  21.4650      501
  21.5100      668
  21.5550      561
  21.6000      364
  21.6450      272
  21.6900      313
  21.7350      297
  21.7800      358
  21.8250      433
  21.8700      362
  21.9150      253
  21.9600      207
  22.0050      217
  22.0500      238
  22.0950      197
  22.1400      185
  22.1850      140
  22.2300      165
  22.2750      156
  22.3200      150
  22.3650      137
  22.4100      138
  22.4550      141
  22.5000      116
  22.5450      139
  22.5900      134
  22.6350      116
  22.6800      125
  22.7250      125
  22.7700      124
  22.8150      148
  22.8600      147
  22.9050      128
  22.9500      145
  22.9950      133
  23.0400      146
  23.0850      127
  23.1300      161
  23.1750      158
  23.2200      147
  23.2650      185
  23.3100      180
  23.3550      193
  23.4000      167
  23.4450      145
  23.4900      141
  23.5350      147
  23.5800      140
  23.6250      163
  23.6700      164
  23.7150      163
  23.7600      194
  23.8050      191
  23.8500      201
  23.8950      217
  23.9400      295
  23.9850      360
  24.0300      332
  24.0750      288
  24.1200      299
  24.1650      272
  24.2100      207
  24.2550      187
  24.3000      195
  24.3450      226
  24.3900      255
  24.4350      295
  24.4800      390
  24.5250      518
  24.5700      747
  24.6150      752
  24.6600      414
  24.7050      268
  24.7500      280
  24.7950      387
  24.8400      399
  24.8850      328
  24.9300      290
  24.9750      348
  25.0200      293
  25.0650      249
  25.1100      195
  25.1550      195
  25.2000      218
  25.2450      208
  25.2900      207
  25.3350      193
  25.3800      168
  25.4250      225
  25.4700      229
  25.5150      282
  25.5600      246
  25.6050      213
  25.6500      227
  25.6950      240
  25.7400      310
  25.7850      399
  25.8300      504
  25.8750      388
  25.9200      287
  25.9650      226
  26.0100      211
  26.0550      204
  26.1000      185
  26.1450      178
  26.1900      193
  26.2350      185
  26.2800      200
  26.3250      208
  26.3700      229
  26.4150      231
  26.4600      219
  26.5050      224
  26.5500      286
  26.5950      380
  26.6400      632
  26.6850      571
  26.7300      300
  26.7750      246
  26.8200      239
  26.8650      275
  26.9100      299
  26.9550      351
  27.0000      453
  27.0450      423
  27.0900      297
  27.1350      261
  27.1800      244
  27.2250      245
  27.2700      243
  27.3150      334
  27.3600      549
  27.4050      737
  27.4500      638
  27.4950      444
  27.5400      373
  27.5850      425
  27.6300      389
  27.6750      405
  27.7200      370
  27.7650      289
  27.8100      245
  27.8550      191
  27.9000      192
  27.9450      170
  27.9900      179
  28.0350      158
  28.0800      189
  28.1250      166
  28.1700      153
  28.2150      163
  28.2600      193
  28.3050      204
  28.3500      183
  28.3950      183
  28.4400      202
  28.4850      176
  28.5300      142
  28.5750      136
  28.6200      157
  28.6650      168
  28.7100      204
  28.7550      193
  28.8000      145
  28.8450      151
  28.8900      149
  28.9350      144
  28.9800      154
  29.0250      183
  29.0700      168
  29.1150      165
  29.1600      130
  29.2050      130
  29.2500      137
  29.2950      159
  29.3400      133
  29.3850      138
  29.4300      150
  29.4750      124
  29.5200      124
  29.5650      132
  29.6100      146
  29.6550      136
  29.7000      123
  29.7450      121
  29.7900      110
  29.8350       97
  29.8800      134
  29.9250      137
  29.9700      121
  30.0150      132
  30.0600      132
  30.1050      120
  30.1500      116
  30.1950      129
  30.2400      138
  30.2850      140
  30.3300      163
  30.3750      203
  30.4200      200
  30.4650      190
  30.5100      168
  30.5550      152
  30.6000      147
  30.6450      150
  30.6900      139
  30.7350      127
  30.7800      112
  30.8250      133
  30.8700      134
  30.9150      125
  30.9600      156
  31.0050      176
  31.0500      194
  31.0950      175
  31.1400      208
  31.1850      178
  31.2300      162
  31.2750      141
  31.3200      139
  31.3650      148
  31.4100      153
  31.4550      184
  31.5000      184
  31.5450      166
  31.5900      143
  31.6350      155
  31.6800      137
  31.7250      158
  31.7700      145
  31.8150      169
  31.8600      157
  31.9050      189
  31.9500      209
  31.9950      211
  32.0400      186
  32.0850      175
  32.1300      144
  32.1750      159
  32.2200      162
  32.2650      164
  32.3100      186
  32.3550      202
  32.4000      185
  32.4450      155
  32.4900      163
  32.5350      133
  32.5800      149
  32.6250      155
  32.6700      149
  32.7150      167
  32.7600      134
  32.8050      128
  32.8500      112
  32.8950      123
  32.9400      133
  32.9850      157
  33.0300      149
  33.0750      173
  33.1200      191
  33.1650      249
  33.2100      255
  33.2550      242
  33.3000      184
  33.3450      184
  33.3900      155
  33.4350      158
  33.4800      170
  33.5250      164
  33.5700      170
  33.6150      176
  33.6600      174
  33.7050      164
  33.7500      146
  33.7950      143
  33.8400      136
  33.8850      143
  33.9300      143
  33.9750      113
  34.0200      135
  34.0650      169
  34.1100      156
  34.1550      177
  34.2000      159
  34.2450      151
  34.2900      168
  34.3350      164
  34.3800      175
  34.4250      195
  34.4700      168
  34.5150      186
  34.5600      198
  34.6050      197
  34.6500      205
  34.6950      157
  34.7400      165
  34.7850      112
  34.8300      132
  34.8750      134
  34.9200      123
  34.9650      150
  35.0100      129
  35.0550      131
  35.1000      128
  35.1450      137
  35.1900      150
  35.2350      156
  35.2800      186
  35.3250      207
  35.3700      167
  35.4150      165
  35.4600      146
  35.5050      167
  35.5500      195
  35.5950      202
  35.6400      191
  35.6850      162
  35.7300      164
  35.7750      141
  35.8200      141
  35.8650      167
  35.9100      190
  35.9550      189
  36.0000      180
  36.0450      178
  36.0900      189
  36.1350      193
  36.1800      222
  36.2250      211
  36.2700      239
  36.3150      264
  36.3600      321
  36.4050      362
  36.4500      303
  36.4950      273
  36.5400      248
  36.5850      205
  36.6300      222
  36.6750      187
  36.7200      205
  36.7650      182
  36.8100      152
  36.8550      160
  36.9000      152
  36.9450      162
  36.9900      185
  37.0350      201
  37.0800      170
  37.1250      156
  37.1700      164
  37.2150      202
  37.2600      185
  37.3050      227
  37.3500      223
  37.3950      190
  37.4400      167
  37.4850      180
  37.5300      197
  37.5750      166
  37.6200      168
  37.6650      158
  37.7100      174
  37.7550      186
  37.8000      180
  37.8450      186
  37.8900      212
  37.9350      196
  37.9800      208
  38.0250      189
  38.0700      196
  38.1150      202
  38.1600      236
  38.2050      219
  38.2500      213
  38.2950      175
  38.3400      152
  38.3850      175
  38.4300      174
  38.4750      202
  38.5200      198
  38.5650      189
  38.6100      166
  38.6550      149
  38.7000      145
  38.7450      185
  38.7900      173
  38.8350      178
  38.8800      177
  38.9250      199
  38.9700      171
  39.0150      206
  39.0600      199
  39.1050      188
  39.1500      164
  39.1950      164
  39.2400      140
  39.2850      127
  39.3300      142
  39.3750      152
  39.4200      127
  39.4650      153
  39.5100      140
  39.5550      154
  39.6000      149
  39.6450      175
  39.6900      153
  39.7350      151
  39.7800      157
  39.8250      148
  39.8700      143
  39.9150      152
  39.9600      149
  40.0050      147
  40.0500      157
  40.0950      162
  40.1400      126
  40.1850      140
  40.2300      145
  40.2750      136
  40.3200      159
  40.3650      158
  40.4100      157
  40.4550      178
  40.5000      162
  40.5450      178
  40.5900      153
  40.6350      189
  40.6800      165
  40.7250      192
  40.7700      150
  40.8150      159
  40.8600      180
  40.9050      162
  40.9500      134
  40.9950      123
  41.0400      130
  41.0850      119
  41.1300      139
  41.1750      141
  41.2200      110
  41.2650      148
  41.3100      152
  41.3550      181
  41.4000      175
  41.4450      165
  41.4900      174
  41.5350      167
  41.5800      152
  41.6250      160
  41.6700      146
  41.7150      137
  41.7600      140
  41.8050      130
  41.8500      139
  41.8950      159
  41.9400      152
  41.9850      151
  42.0300      146
  42.0750      154
  42.1200      136
  42.1650      150
  42.2100      160
  42.2550      163
  42.3000      162
  42.3450      174
  42.3900      142
  42.4350      147
  42.4800      137
  42.5250      137
  42.5700      140
  42.6150      129
  42.6600      136
  42.7050      162
  42.7500      159
  42.7950      157
  42.8400      183
  42.8850      172
  42.9300      170
  42.9750      141
  43.0200      148
  43.0650      155
  43.1100      139
  43.1550      162
  43.2000      140
  43.2450      182
  43.2900      155
  43.3350      148
  43.3800      139
  43.4250      136
  43.4700      166
  43.5150      147
  43.5600      165
  43.6050      141
  43.6500      145
  43.6950      128
  43.7400      149
  43.7850      154
  43.8300      173
  43.8750      139
  43.9200      125
  43.9650      132
  44.0100      134
  44.0550      131
  44.1000      137
  44.1450      120
  44.1900      102
  44.2350      117
  44.2800      121
  44.3250      132
  44.3700      131
  44.4150      125
  44.4600      162
  44.5050      162
  44.5500      146
  44.5950      121
  44.6400      141
  44.6850      122
  44.7300      121
  44.7750      114
  44.8200      115
  44.8650      100
  44.9100      107
  44.9550      101
  45.0000      110
  45.0450      113
  45.0900      108
  45.1350      107
  45.1800      103
  45.2250      121
  45.2700      133
  45.3150      120
  45.3600      110
  45.4050      112
  45.4500      138
  45.4950      131
  45.5400      133
  45.5850      110
  45.6300      118
  45.6750       99
  45.7200       91
  45.7650       93
  45.8100       93
  45.8550      103
  45.9000      105
  45.9450      118
  45.9900      114
  46.0350      121
  46.0800      111
  46.1250      107
  46.1700      112
  46.2150       98
  46.2600      119
  46.3050       92
  46.3500       84
  46.3950      100
  46.4400       97
  46.4850       95
  46.5300      105
  46.5750       90
  46.6200       78
  46.6650       87
  46.7100      127
  46.7550      105
  46.8000       79
  46.8450       89
  46.8900      109
  46.9350       94
  46.9800      107
  47.0250      109
  47.0700       96
  47.1150       98
  47.1600      105
  47.2050      102
  47.2500      106
  47.2950      113
  47.3400      108
  47.3850      120
  47.4300      117
  47.4750      100
  47.5200       96
  47.5650       94
  47.6100       91
  47.6550      105
  47.7000      111
  47.7450      108
  47.7900       97
  47.8350      112
  47.8800       99
  47.9250      113
  47.9700      127
  48.0150      100
  48.0600       97
  48.1050       94
  48.1500       96
  48.1950      123
  48.2400       99
  48.2850      106
  48.3300      105
  48.3750      101
  48.4200       80
  48.4650       99
  48.5100       96
  48.5550      100
  48.6000       93
  48.6450       89
  48.6900       79
  48.7350       89
  48.7800       76
  48.8250       82
  48.8700       96
  48.9150      113
  48.9600       94
  49.0050       97
  49.0500      100
  49.0950      100
  49.1400       97
  49.1850      100
  49.2300      110
  49.2750      114
  49.3200      116
  49.3650      107
  49.4100       86
  49.4550      103
  49.5000      110
  49.5450      106
  49.5900      108
  49.6350      105
  49.6800       98
  49.7250      101
  49.7700       91
  49.8150       97
  49.8600      106
  49.9050      109
  49.9500      111
  49.9950      105
  50.0400      102
  50.0850      123
  50.1300      124
  50.1750      122
  50.2200      112
  50.2650      118
  50.3100      104
  50.3550      104
  50.4000       98
  50.4450      102
  50.4900      118
  50.5350       94
  50.5800       99
  50.6250      101
  50.6700      104
  50.7150       97
  50.7600       80
  50.8050       90
  50.8500       81
  50.8950      100
  50.9400       99
  50.9850       97
  51.0300      109
  51.0750      103
  51.1200      104
  51.1650      109
  51.2100       97
  51.2550      104
  51.3000      111
  51.3450      121
  51.3900      111
  51.4350       98
  51.4800       93
  51.5250      100
  51.5700      113
  51.6150       94
  51.6600       91
  51.7050      100
  51.7500      124
  51.7950      134
  51.8400      131
  51.8850      124
  51.9300      128
  51.9750      114
  52.0200      101
  52.0650      103
  52.1100      130
  52.1550      120
  52.2000       99
  52.2450      107
  52.2900       94
  52.3350      103
  52.3800      128
  52.4250      105
  52.4700      134
  52.5150      110
  52.5600      120
  52.6050      114
  52.6500      134
  52.6950      125
  52.7400      113
  52.7850      122
  52.8300      109
  52.8750      118
  52.9200      108
  52.9650      116
  53.0100      110
  53.0550      114
  53.1000      103
  53.1450      106
  53.1900       93
  53.2350       96
  53.2800       91
  53.3250       97
  53.3700       95
  53.4150       97
  53.4600       89
  53.5050      119
  53.5500      124
  53.5950       97
  53.6400      115
  53.6850      107
  53.7300      109
  53.7750      104
  53.8200      110
  53.8650      111
  53.9100       97
  53.9550      113
  54.0000      114
  54.0450      121
  54.0900      113
  54.1350      114
  54.1800       99
  54.2250      103
  54.2700      104
  54.3150       81
  54.3600       96
  54.4050       92
  54.4500       91
  54.4950      109
  54.5400      102
  54.5850       87
  54.6300       80
  54.6750      105
  54.7200      113
  54.7650      114
  54.8100       99
  54.8550       92
  54.9000       78
  54.9450       89
  54.9900       90
  55.0350       88
  55.0800       91
  55.1250      104
  55.1700       94
  55.2150      100
  55.2600       78
  55.3050       90
  55.3500       96
  55.3950       91
  55.4400      111
  55.4850       86
  55.5300       92
  55.5750       95
  55.6200       95
  55.6650       99
  55.7100      104
  55.7550      109
  55.8000      105
  55.8450      112
  55.8900      110
  55.9350      108
  55.9800      122
  56.0250      107
  56.0700       98
  56.1150      100
  56.1600      116
  56.2050      108
  56.2500       96
  56.2950       92
  56.3400       87
  56.3850       87
  56.4300      109
  56.4750       99
  56.5200      100
  56.5650      112
  56.6100       87
  56.6550       85
  56.7000      107
  56.7450       96
  56.7900      110
  56.8350      106
  56.8800      104
  56.9250      103
  56.9700       91
  57.0150       78
  57.0600      110
  57.1050       98
  57.1500      113
  57.1950       89
  57.2400      106
  57.2850       89
  57.3300       97
  57.3750      117
  57.4200      109
  57.4650      109
  57.5100       96
  57.5550       98
  57.6000       79
  57.6450      128
  57.6900      105
  57.7350      104
  57.7800      101
  57.8250       90
  57.8700       90
  57.9150      113
  57.9600       86
  58.0050      100
  58.0500       90
  58.0950       89
  58.1400       93
  58.1850       94
  58.2300       99
  58.2750       94
  58.3200       95
  58.3650       89
  58.4100       78
  58.4550       89
  58.5000      103
  58.5450       91
  58.5900       75
  58.6350       96
  58.6800       94
  58.7250       95
  58.7700       93
  58.8150       88
  58.8600       78
  58.9050       96
  58.9500       89
  58.9950       94
  59.0400       91
  59.0850      107
  59.1300       85
  59.1750       91
  59.2200      103
  59.2650      103
  59.3100       92
  59.3550       84
  59.4000      114
  59.4450       97
  59.4900       95
  59.5350       92
  59.5800       93
  59.6250       89
  59.6700      101
  59.7150       75
  59.7600       76
  59.8050       95
  59.8500       81
  59.8950       81
  59.9400       69
  59.9850       80
  60.0300       75
  60.0750      100
  60.1200       68
  60.1650       74
  60.2100       91
  60.2550       87
  60.3000       90
  60.3450       98
  60.3900       89
  60.4350       92
  60.4800       76
  60.5250       97
  60.5700      100
  60.6150       73
  60.6600       85
  60.7050       86
  60.7500       84
  60.7650       88