File: Test_XRD/03_Sample 3_XRD001/baseline/03_Sample 3_XRD001_basecorr.csv
4.5;255;264.252;-9.25193
4.545;258;264.781;-6.7813
4.59;251;265.31;-14.3104
4.635;259;265.839;-6.83874
4.68;285;266.366;18.6344
4.725;289;266.89;22.1101
4.77;297;267.411;29.5893
4.815;302;267.927;34.0729
4.86;316;268.438;47.5621
4.905;295;268.942;26.0577
4.95;306;269.439;36.5608
4.995;301;269.928;31.0724
5.04;324;270.407;53.5934
5.085;320;270.875;49.1248
5.13;321;271.332;49.6676
5.175;355;271.777;83.2228
5.22;387;272.209;114.791
5.265;352;272.626;79.3742
5.31;372;273.028;98.9722
5.355;335;273.414;61.5865
5.4;386;273.782;112.218
5.445;422;274.133;147.867
5.49;417;274.464;142.536
5.535;432;274.776;157.224
5.58;411;275.067;135.933
5.625;447;275.336;171.664
5.67;468;275.583;192.417
5.715;494;275.806;218.194
5.76;482;276.005;205.995
5.805;490;276.179;213.821
5.85;511;276.327;234.673
5.895;548;276.448;271.552
5.94;514;276.542;237.458
5.985;560;276.607;283.393
6.03;566;276.644;289.356
6.075;585;276.65;308.35
6.12;635;276.627;358.373
6.165;654;276.572;377.428
6.21;693;276.486;416.514
6.255;704;276.367;427.633
6.3;739;276.216;462.784
6.345;738;276.031;461.969
6.39;844;275.813;568.187
6.435;785;275.56;509.44
6.48;858;275.272;582.728
6.525;845;274.949;570.051
6.57;891;274.591;616.409
6.615;971;274.197;696.803
6.66;977;273.767;703.233
6.705;1022;273.3;748.7
6.75;1070;272.798;797.202
6.795;1095;272.259;822.741
6.84;1172;271.684;900.316
6.885;1193;271.073;921.927
6.93;1190;270.425;919.575
6.975;1257;269.742;987.258
7.02;1331;269.023;1061.98
7.065;1353;268.269;1084.73
7.11;1478;267.48;1210.52
7.155;1507;266.656;1240.34
7.2;1363;265.8;1097.2
7.245;1200;264.91;935.09
7.29;1034;263.988;770.012
7.335;1007;263.035;743.965
7.38;903;262.052;640.948
7.425;818;261.04;556.96
7.47;770;260;510
7.515;679;258.933;420.067
7.56;709;257.84;451.16
7.605;642;256.722;385.278
7.65;614;255.581;358.419
7.695;549;254.418;294.582
7.74;530;253.234;276.766
7.785;485;252.03;232.97
7.83;461;250.808;210.192
7.875;423;249.57;173.43
7.92;449;248.316;200.684
7.965;397;247.048;149.952
8.01;386;245.767;140.233
8.055;359;244.476;114.524
8.1;344;243.174;100.826
8.145;310;241.864;68.136
8.19;324;240.547;83.4528
8.235;285;239.225;45.7751
8.28;299;237.899;61.1014
8.325;276;236.57;39.4302
8.37;292;235.24;56.76
8.415;265;233.911;31.0894
8.46;288;232.583;55.4169
8.505;257;231.259;25.7411
8.55;247;229.94;17.0603
8.595;259;228.627;30.3732
8.64;261;227.322;33.6783
8.685;243;226.026;16.974
8.73;248;224.741;23.2589
8.775;226;223.468;2.53156
8.82;237;222.21;14.7904
8.865;236;220.966;15.0339
8.91;247;219.739;27.2609
8.955;238;218.53;19.4703
9;240;217.339;22.661
9.045;211;216.168;-5.16813
9.09;231;215.018;15.982
9.135;239;213.89;25.1103
9.18;234;212.784;21.2158
9.225;224;211.702;12.2978
9.27;227;210.645;16.3552
9.315;231;209.612;21.3876
9.36;222;208.606;13.3944
9.405;219;207.625;11.3755
9.45;204;206.67;-2.66972
9.495;208;205.742;2.25846
9.54;229;204.84;24.1599
9.585;208;203.965;4.03462
9.63;212;203.117;8.88267
9.675;223;202.296;20.7042
9.72;213;201.5;11.4996
9.765;212;200.731;11.2692
9.81;229;199.987;29.0132
9.855;230;199.268;30.732
9.9;239;198.574;40.4258
9.945;254;197.905;56.0951
9.99;226;197.26;28.74
10.035;225;196.639;28.3608
10.08;213;196.042;16.958
10.125;226;195.468;30.5317
10.17;231;194.918;36.0822
10.215;237;194.39;42.6099
10.26;231;193.885;37.115
10.305;229;193.402;35.5979
10.35;226;192.941;33.0587
10.395;236;192.502;43.4977
10.44;225;192.085;32.9153
10.485;227;191.688;35.3117
10.53;212;191.313;20.6871
10.575;225;190.958;34.0419
10.62;222;190.624;31.3763
10.665;236;190.309;45.6906
10.71;226;190.015;35.985
10.755;224;189.74;34.2598
10.8;237;189.485;47.5152
10.845;213;189.249;23.7515
10.89;200;189.031;10.9689
10.935;214;188.832;25.1677
10.98;205;188.652;16.3481
11.025;253;188.49;64.5104
11.07;238;188.345;49.6547
11.115;235;188.219;46.7814
11.16;227;188.109;38.8906
11.205;228;188.017;39.9826
11.25;246;187.942;58.0576
11.295;227;187.884;39.1159
11.34;224;187.842;36.1575
11.385;226;187.817;38.1829
11.43;200;187.808;12.1921
11.475;221;187.815;33.1853
11.52;219;187.837;31.1629
11.565;210;187.875;22.1249
11.61;237;187.928;49.0716
11.655;213;187.997;25.0032
11.7;216;188.08;27.9199
11.745;205;188.178;16.8218
11.79;213;188.291;24.7092
11.835;230;188.418;41.5823
11.88;235;188.559;46.4411
11.925;240;188.714;51.286
11.97;213;188.883;24.1171
12.015;238;189.065;48.9345
12.06;218;189.261;28.7385
12.105;234;189.471;44.5292
12.15;236;189.693;46.3067
12.195;228;189.929;38.0712
12.24;252;190.177;61.8229
12.285;233;190.438;42.562
12.33;252;190.712;61.2885
12.375;213;190.997;22.0026
12.42;246;191.296;54.7045
12.465;245;191.606;53.3942
12.51;221;191.928;29.072
12.555;265;192.262;72.738
12.6;237;192.608;44.3922
12.645;264;192.965;71.0349
12.69;238;193.334;44.666
12.735;262;193.714;68.2858
12.78;293;194.106;98.8943
12.825;269;194.508;74.4917
12.87;252;194.922;57.0779
12.915;280;195.347;84.6532
12.96;272;195.782;76.2176
13.005;291;196.229;94.7711
13.05;296;196.686;99.3139
13.095;268;197.154;70.846
13.14;285;197.633;87.3674
13.185;261;198.122;62.8782
13.23;295;198.622;96.3785
13.275;289;199.132;89.8682
13.32;284;199.653;84.3474
13.365;282;200.184;81.8161
13.41;327;200.726;126.274
13.455;287;201.278;85.722
13.5;281;201.841;79.1592
13.545;309;202.414;106.586
13.59;310;202.998;107.002
13.635;301;203.592;97.4078
13.68;295;204.197;90.8028
13.725;343;204.813;138.187
13.77;300;205.439;94.5609
13.815;301;206.076;94.9239
13.86;335;206.724;128.276
13.905;303;207.383;95.6172
13.95;292;208.053;83.9475
13.995;308;208.733;99.2666
14.04;320;209.425;110.575
14.085;278;210.129;67.8712
14.13;335;210.844;124.156
14.175;365;211.57;153.43
14.22;293;212.308;80.6921
14.265;255;213.058;41.9422
14.31;247;213.82;33.1804
14.355;267;214.594;52.4065
14.4;296;215.38;80.6202
14.445;231;216.178;14.8215
14.49;246;216.99;29.0102
14.535;256;217.814;38.186
14.58;242;218.651;23.3489
14.625;255;219.501;35.4986
14.67;247;220.365;26.635
14.715;243;221.242;21.7578
14.76;252;222.133;29.867
14.805;236;223.038;12.9622
14.85;251;223.957;27.0434
14.895;266;224.89;41.1104
14.94;233;225.837;7.16304
14.985;250;226.799;23.2013
15.03;241;227.775;13.2252
15.075;252;228.765;23.235
15.12;248;229.769;18.2308
15.165;236;230.787;5.21284
15.21;240;231.819;8.18124
15.255;242;232.864;9.13619
15.3;249;233.922;15.078
15.345;267;234.993;32.0069
15.39;256;236.076;19.9235
15.435;241;237.171;3.82872
15.48;247;238.277;8.72337
15.525;289;239.392;49.6083
15.57;275;240.516;34.4845
15.615;291;241.647;49.3527
15.66;298;242.786;55.2138
15.705;310;243.931;66.0687
15.75;357;245.082;111.918
15.795;424;246.237;177.763
15.84;565;247.396;317.604
15.885;605;248.557;356.443
15.93;603;249.721;353.279
15.975;703;250.886;452.114
16.02;554;252.051;301.949
16.065;426;253.217;172.783
16.11;367;254.381;112.619
16.155;338;255.544;82.4557
16.2;329;256.705;72.2948
16.245;362;257.863;104.137
16.29;359;259.018;99.9819
16.335;341;260.169;80.8312
16.38;363;261.315;101.685
16.425;362;262.455;99.5447
16.47;333;263.59;69.41
16.515;333;264.718;68.2818
16.56;398;265.839;132.161
16.605;377;266.953;110.047
16.65;386;268.058;117.942
16.695;353;269.154;83.8462
16.74;374;270.24;103.76
16.785;370;271.317;98.6828
16.83;380;272.383;107.617
16.875;376;273.439;102.561
16.92;391;274.482;116.518
16.965;378;275.513;102.487
17.01;356;276.532;79.4678
17.055;369;277.538;91.4622
17.1;378;278.53;99.4702
17.145;373;279.508;93.4923
17.19;357;280.471;76.529
17.235;391;281.419;109.581
17.28;389;282.352;106.648
17.325;386;283.269;102.731
17.37;371;284.169;86.8312
17.415;384;285.052;98.9478
17.46;374;285.918;88.0818
17.505;353;286.766;66.2335
17.55;390;287.597;102.403
17.595;374;288.408;85.5919
17.64;366;289.201;76.7994
17.685;373;289.974;83.0262
17.73;373;290.727;82.2728
17.775;391;291.46;99.5396
17.82;417;292.173;124.827
17.865;375;292.865;82.1352
17.91;402;293.535;108.465
17.955;403;294.184;108.816
18;381;294.811;86.1889
18.045;425;295.416;129.584
18.09;384;295.998;88.0023
18.135;382;296.557;85.4433
18.18;394;297.092;96.9076
18.225;403;297.605;105.395
18.27;399;298.093;100.907
18.315;364;298.557;65.4431
18.36;395;298.997;96.0035
18.405;404;299.411;104.589
18.45;429;299.801;129.199
18.495;418;300.166;117.834
18.54;445;300.505;144.495
18.585;443;300.818;142.182
18.63;414;301.105;112.895
18.675;415;301.367;113.633
18.72;452;301.601;150.399
18.765;441;301.809;139.191
18.81;494;301.99;192.01
18.855;641;302.144;338.856
18.9;847;302.271;544.729
18.945;1089;302.371;786.629
18.99;1105;302.443;802.557
19.035;857;302.488;554.512
19.08;609;302.505;306.495
19.125;521;302.495;218.505
19.17;444;302.458;141.542
19.215;430;302.394;127.606
19.26;414;302.303;111.697
19.305;429;302.184;126.816
19.35;407;302.04;104.96
19.395;435;301.869;133.131
19.44;425;301.671;123.329
19.485;410;301.448;108.552
19.53;384;301.198;82.8017
19.575;409;300.923;108.077
19.62;388;300.622;87.3775
19.665;421;300.297;120.703
19.71;392;299.946;92.0544
19.755;416;299.57;116.43
19.8;398;299.17;98.8304
19.845;403;298.745;104.255
19.89;404;298.296;105.704
19.935;411;297.824;113.176
19.98;447;297.328;149.672
20.025;512;296.809;215.191
20.07;575;296.267;278.733
20.115;550;295.703;254.297
20.16;549;295.116;253.884
20.205;514;294.508;219.492
20.25;456;293.878;162.122
20.295;496;293.227;202.773
20.34;468;292.555;175.445
20.385;555;291.863;263.137
20.43;470;291.151;178.849
20.475;431;290.42;140.58
20.52;421;289.67;131.33
20.565;404;288.902;115.098
20.61;456;288.116;167.884
20.655;393;287.312;105.688
20.7;372;286.492;85.5082
20.745;347;285.655;61.3447
20.79;382;284.803;97.1971
20.835;382;283.935;98.0646
20.88;372;283.053;88.9468
20.925;348;282.157;65.843
20.97;324;281.247;42.7528
21.015;339;280.324;58.6756
21.06;333;279.389;53.6107
21.105;357;278.442;78.5576
21.15;354;277.484;76.5158
21.195;341;276.515;64.4845
21.24;339;275.537;63.4633
21.285;343;274.548;68.4516
21.33;331;273.551;57.4486
21.375;318;272.546;45.4539
21.42;325;271.533;53.4667
21.465;326;270.513;55.4866
21.51;328;269.487;58.5127
21.555;345;268.455;76.5446
21.6;353;267.418;85.5816
21.645;371;266.377;104.623
21.69;344;265.332;78.6683
21.735;296;264.283;31.7167
21.78;323;263.232;59.7675
21.825;297;262.18;34.8202
21.87;308;261.126;46.874
21.915;309;260.072;48.9283
21.96;261;259.018;1.98245
22.005;278;257.964;20.0357
22.05;296;256.913;39.0873
22.095;284;255.863;28.1367
22.14;269;254.817;14.1831
22.185;254;253.774;0.225958
22.23;287;252.736;34.2645
22.275;275;251.702;23.2979
22.32;279;250.674;28.3257
22.365;285;249.653;35.347
22.41;283;248.639;34.3613
22.455;289;247.632;41.3677
22.5;260;246.634;13.3656
22.545;280;245.646;34.3544
22.59;249;244.667;4.33337
22.635;286;243.698;42.3021
22.68;262;242.74;19.2598
22.725;285;241.794;43.2062
22.77;243;240.86;2.14044
22.815;254;239.938;14.0622
22.86;265;239.029;25.9711
22.905;276;238.133;37.8667
22.95;246;237.251;8.74889
22.995;256;236.383;19.6172
23.04;228;235.529;-7.52878
23.085;254;234.689;19.3108
23.13;252;233.864;18.136
23.175;234;233.053;0.947007
23.22;241;232.256;8.74389
23.265;269;231.473;37.5268
23.31;252;230.704;21.296
23.355;266;229.948;36.0516
23.4;251;229.206;21.7937
23.445;238;228.477;9.52257
23.49;256;227.761;28.2385
23.535;260;227.058;32.9418
23.58;275;226.367;48.6329
23.625;232;225.688;6.31194
23.67;262;225.021;36.9794
23.715;244;224.365;19.6354
23.76;262;223.72;38.2805
23.805;260;223.085;36.9148
23.85;255;222.461;32.5387
23.895;273;221.848;51.1525
23.94;263;221.244;41.7565
23.985;259;220.649;38.3509
24.03;246;220.064;25.9362
24.075;251;219.487;31.5125
24.12;249;218.92;30.0804
24.165;250;218.36;31.6401
24.21;253;217.808;35.1922
24.255;266;217.263;48.737
24.3;257;216.725;40.2749
24.345;264;216.194;47.8063
24.39;305;215.668;89.3315
24.435;274;215.149;58.851
24.48;304;214.635;89.3652
24.525;292;214.126;77.8743
24.57;334;213.621;120.379
24.615;333;213.121;119.879
24.66;334;212.625;121.375
24.705;294;212.132;81.868
24.75;373;211.643;161.357
24.795;380;211.156;168.844
24.84;394;210.672;183.328
24.885;341;210.191;130.809
24.93;306;209.711;96.2888
24.975;292;209.233;82.7665
25.02;270;208.757;61.2427
25.065;249;208.282;40.7176
25.11;281;207.809;73.1915
25.155;274;207.335;66.6646
25.2;262;206.863;55.1372
25.245;254;206.39;47.6095
25.29;252;205.918;46.0818
25.335;268;205.446;62.5542
25.38;273;204.973;68.027
25.425;258;204.5;53.5005
25.47;242;204.025;37.9748
25.515;247;203.55;43.4501
25.56;293;203.073;89.9267
25.605;231;202.595;28.4048
25.65;258;202.116;55.8845
25.695;298;201.634;96.366
25.74;293;201.15;91.8496
25.785;327;200.665;126.335
25.83;323;200.176;122.824
25.875;300;199.686;100.314
25.92;310;199.192;110.808
25.965;281;198.696;82.3039
26.01;292;198.197;93.8031
26.055;279;197.695;81.3054
26.1;290;197.189;92.8109
26.145;272;196.68;75.3198
26.19;272;196.168;75.8322
26.235;274;195.652;78.3481
26.28;281;195.132;85.8676
26.325;301;194.609;106.391
26.37;312;194.082;117.918
26.415;290;193.551;96.449
26.46;274;193.016;80.984
26.505;281;192.477;88.5229
26.55;265;191.934;73.066
26.595;263;191.387;71.6131
26.64;268;190.836;77.1644
26.685;275;190.28;84.7199
26.73;252;189.72;62.2796
26.775;273;189.157;83.8435
26.82;260;188.588;71.4116
26.865;293;188.016;104.984
26.91;301;187.439;113.561
26.955;322;186.858;135.142
27;321;186.273;134.727
27.045;325;185.684;139.316
27.09;304;185.09;118.91
27.135;289;184.493;104.507
27.18;289;183.891;105.109
27.225;238;183.285;54.7145
27.27;281;182.676;98.3241
27.315;281;182.062;98.9376
27.36;255;181.445;73.5549
27.405;292;180.824;111.176
27.45;272;180.2;91.8002
27.495;273;179.572;93.4282
27.54;290;178.941;111.059
27.585;271;178.306;92.6939
27.63;285;177.668;107.332
27.675;235;177.028;57.972
27.72;276;176.385;99.6154
27.765;263;175.739;87.2614
27.81;242;175.09;66.9099
27.855;260;174.439;85.5607
27.9;246;173.786;72.2137
27.945;229;173.131;55.8687
27.99;241;172.475;68.5254
28.035;216;171.816;44.1838
28.08;234;171.156;62.8436
28.125;221;170.495;50.5046
28.17;238;169.833;68.1666
28.215;229;169.171;59.8294
28.26;213;168.507;44.4928
28.305;208;167.843;40.1566
28.35;198;167.179;30.8205
28.395;214;166.516;47.4844
28.44;197;165.852;31.148
28.485;209;165.189;43.811
28.53;216;164.527;51.4733
28.575;212;163.865;48.1346
28.62;194;163.205;30.7946
28.665;221;162.547;58.4532
28.71;206;161.89;44.1101
28.755;171;161.235;9.76494
28.8;215;160.582;54.4176
28.845;192;159.932;32.0678
28.89;213;159.285;53.7152
28.935;201;158.64;42.3596
28.98;204;157.999;46.0008
29.025;227;157.362;69.6385
29.07;215;156.728;58.2723
29.115;203;156.098;46.9021
29.16;188;155.473;32.5275
29.205;195;154.852;40.1482
29.25;191;154.236;36.7641
29.295;207;153.625;53.3747
29.34;177;153.02;23.9797
29.385;192;152.421;39.579
29.43;210;151.828;58.1721
29.475;180;151.241;28.7588
29.52;175;150.661;24.3387
29.565;188;150.088;37.9116
29.61;176;149.523;26.4772
29.655;175;148.965;26.0351
29.7;154;148.415;5.58497
29.745;162;147.873;14.1266
29.79;161;147.34;13.6595
29.835;157;146.816;10.1835
29.88;172;146.302;25.6982
29.925;193;145.797;47.2034
29.97;186;145.301;40.6986
30.015;157;144.816;12.1835
30.06;167;144.342;22.6579
30.105;163;143.879;19.1213
30.15;150;143.426;6.57353
30.195;157;142.986;14.0141
30.24;182;142.557;39.4428
30.285;163;142.141;20.8593
30.33;165;141.737;23.2634
30.375;161;141.345;19.655
30.42;148;140.966;7.03394
30.465;164;140.6;23.3999
30.51;162;140.247;21.753
30.555;154;139.907;14.0931
30.6;142;139.58;2.42029
30.645;166;139.265;26.7346
30.69;150;138.964;11.036
30.735;150;138.675;11.3246
30.78;153;138.4;14.6005
30.825;167;138.136;28.8638
30.87;149;137.885;11.1147
30.915;155;137.647;17.3534
30.96;152;137.42;14.5801
31.005;164;137.205;26.7948
31.05;159;137.002;21.9979
31.095;147;136.81;10.1896
31.14;153;136.63;16.3701
31.185;149;136.46;12.5395
31.23;156;136.302;19.6982
31.275;154;136.154;17.8464
31.32;163;136.016;26.9842
31.365;148;135.888;12.112
31.41;159;135.77;23.2298
31.455;156;135.662;20.338
31.5;156;135.563;20.4367
31.545;160;135.474;24.5262
31.59;142;135.393;6.60658
31.635;159;135.322;23.6782
31.68;169;135.259;33.7411
31.725;164;135.204;28.7957
31.77;164;135.158;28.842
31.815;158;135.12;22.8803
31.86;153;135.089;17.9108
31.905;176;135.066;40.9337
31.95;161;135.051;25.9492
31.995;175;135.043;39.9574
32.04;167;135.041;31.9585
32.085;182;135.047;46.9528
32.13;167;135.06;31.9404
32.175;166;135.079;30.9215
32.22;164;135.104;28.8963
32.265;204;135.135;68.8649
32.31;180;135.173;44.8275
32.355;166;135.216;30.7842
32.4;147;135.265;11.7353
32.445;164;135.319;28.681
32.49;159;135.379;23.6212
32.535;153;135.444;17.5563
32.58;164;135.514;28.4863
32.625;166;135.589;30.4114
32.67;165;135.668;29.3318
32.715;169;135.752;33.2475
32.76;187;135.841;51.1588
32.805;171;135.934;35.0658
32.85;176;136.031;39.9686
32.895;164;136.133;27.8674
32.94;182;136.238;45.7622
32.985;175;136.347;38.6532
33.03;217;136.459;80.5405
33.075;218;136.576;81.4243
33.12;248;136.695;111.305
33.165;273;136.818;136.182
33.21;285;136.945;148.055
33.255;282;137.074;144.926
33.3;246;137.206;108.794
33.345;255;137.342;117.658
33.39;184;137.48;46.5197
33.435;165;137.622;27.3784
33.48;194;137.766;56.2342
33.525;192;137.913;54.0872
33.57;160;138.063;21.9374
33.615;157;138.215;18.7849
33.66;175;138.37;36.6297
33.705;156;138.528;17.4717
33.75;153;138.689;14.3111
33.795;154;138.852;15.1479
33.84;151;139.018;11.982
33.885;151;139.186;11.8136
33.93;148;139.357;8.64257
33.975;177;139.531;37.469
34.02;163;139.707;23.2929
34.065;161;139.886;21.1144
34.11;165;140.067;24.9333
34.155;164;140.25;23.7497
34.2;168;140.436;27.5637
34.245;162;140.625;21.3752
34.29;166;140.816;25.1843
34.335;170;141.009;28.9909
34.38;159;141.205;17.7951
34.425;157;141.403;15.5969
34.47;156;141.604;14.3962
34.515;175;141.807;33.1931
34.56;174;142.012;31.9878
34.605;164;142.22;21.7802
34.65;183;142.429;40.5705
34.695;169;142.641;26.3588
34.74;180;142.855;37.1452
34.785;184;143.07;40.9297
34.83;187;143.288;43.7124
34.875;139;143.507;-4.50654
34.92;160;143.727;16.2729
34.965;169;143.949;25.0509
35.01;162;144.172;17.8277
35.055;183;144.396;38.6035
35.1;144;144.622;-0.621529
35.145;171;144.847;26.1528
35.19;184;145.073;38.9267
35.235;158;145.3;12.7003
35.28;177;145.526;31.4739
35.325;174;145.752;28.2477
35.37;160;145.978;14.0219
35.415;172;146.203;25.7966
35.46;171;146.428;24.5721
35.505;174;146.651;27.3486
35.55;188;146.874;41.1261
35.595;178;147.095;30.905
35.64;164;147.315;16.6855
35.685;162;147.532;14.4676
35.73;170;147.748;22.2515
35.775;176;147.962;28.0376
35.82;195;148.174;46.8259
35.865;168;148.383;19.6166
35.91;166;148.59;17.4098
35.955;161;148.794;12.2059
36;188;148.995;39.0048
36.045;184;149.193;34.8069
36.09;180;149.388;30.6121
36.135;186;149.579;36.4208
36.18;195;149.767;45.2331
36.225;206;149.951;56.0491
36.27;188;150.131;37.8689
36.315;204;150.307;53.6928
36.36;207;150.479;56.5208
36.405;187;150.647;36.3531
36.45;188;150.81;37.1898
36.495;193;150.969;42.0311
36.54;184;151.123;32.8771
36.585;182;151.272;30.728
36.63;200;151.416;48.5837
36.675;189;151.555;37.4445
36.72;178;151.689;26.3106
36.765;179;151.818;27.1819
36.81;179;151.941;27.0586
36.855;206;152.059;53.9408
36.9;200;152.171;47.8287
36.945;169;152.278;16.7223
36.99;185;152.378;32.6218
37.035;188;152.473;35.5272
37.08;169;152.561;16.4386
37.125;192;152.644;39.3562
37.17;195;152.72;42.2799
37.215;161;152.79;8.21002
37.26;182;152.854;29.1465
37.305;205;152.911;52.0894
37.35;193;152.961;40.039
37.395;189;153.005;35.9951
37.44;182;153.042;28.958
37.485;189;153.072;35.9276
37.53;171;153.096;17.9041
37.575;195;153.112;41.8875
37.62;200;153.122;46.8779
37.665;192;153.125;38.8754
37.71;165;153.12;11.8799
37.755;220;153.108;66.8916
37.8;195;153.09;41.9105
37.845;188;153.063;34.9366
37.89;177;153.03;23.9701
37.935;214;152.989;61.0109
37.98;190;152.941;37.0591
38.025;190;152.885;37.1147
38.07;195;152.822;42.1778
38.115;199;152.752;46.2483
38.16;210;152.674;57.3264
38.205;209;152.588;56.412
38.25;212;152.495;59.5052
38.295;197;152.394;44.6059
38.34;210;152.286;57.7142
38.385;206;152.17;53.8302
38.43;212;152.046;59.9537
38.475;231;151.915;79.0849
38.52;212;151.776;60.2236
38.565;219;151.63;67.3699
38.61;205;151.476;53.5238
38.655;217;151.315;65.6852
38.7;223;151.146;71.8541
38.745;209;150.97;58.0305
38.79;205;150.786;54.2143
38.835;191;150.594;40.4055
38.88;194;150.396;43.6041
38.925;184;150.19;33.8099
38.97;206;149.977;56.023
39.015;206;149.757;56.2432
39.06;208;149.529;58.4706
39.105;191;149.295;41.705
39.15;191;149.054;41.9463
39.195;182;148.805;33.1946
39.24;165;148.55;16.4497
39.285;192;148.288;43.7115
39.33;172;148.02;23.98
39.375;183;147.745;35.255
39.42;180;147.463;32.5365
39.465;173;147.176;25.8244
39.51;192;146.881;45.1186
39.555;198;146.581;51.419
39.6;196;146.275;49.7254
39.645;164;145.962;18.0379
39.69;169;145.644;23.3562
39.735;182;145.32;36.6802
39.78;184;144.99;39.01
39.825;154;144.655;9.34523
39.87;157;144.314;12.6859
39.915;194;143.968;50.0319
39.96;147;143.617;3.38309
40.005;183;143.261;39.7393
40.05;173;142.9;30.1005
40.095;180;142.534;37.4665
40.14;158;142.163;15.8371
40.185;173;141.788;31.2124
40.23;170;141.408;28.592
40.275;188;141.024;46.976
40.32;168;140.636;27.364
40.365;168;140.244;27.7562
40.41;159;139.848;19.1521
40.455;161;139.448;21.5519
40.5;172;139.045;32.9552
40.545;145;138.638;6.36197
40.59;171;138.228;32.772
40.635;154;137.815;16.1853
40.68;168;137.399;30.6015
40.725;176;136.979;39.0205
40.77;185;136.558;48.4423
40.815;174;136.133;37.8666
40.86;189;135.707;53.2932
40.905;164;135.278;28.7221
40.95;146;134.847;11.1529
40.995;168;134.414;33.5857
41.04;146;133.98;12.0201
41.085;165;133.544;31.4561
41.13;155;133.106;21.8935
41.175;145;132.668;12.3321
41.22;166;132.228;33.7718
41.265;167;131.788;35.2123
41.31;138;131.346;6.65361
41.355;162;130.905;31.0955
41.4;149;130.462;18.5377
41.445;142;130.02;11.9802
41.49;172;129.577;42.4228
41.535;138;129.135;8.86518
41.58;150;128.693;21.3073
41.625;168;128.251;39.749
41.67;138;127.81;10.1899
41.715;157;127.37;29.6301
41.76;149;126.931;22.0692
41.805;145;126.493;18.5071
41.85;150;126.056;23.9437
41.895;142;125.621;16.3786
41.94;153;125.188;27.8118
41.985;133;124.757;8.24293
42.03;149;124.328;24.6719
42.075;155;123.901;31.0986
42.12;136;123.477;12.5227
42.165;136;123.056;12.944
42.21;142;122.638;19.3624
42.255;142;122.222;19.7777
42.3;126;121.81;4.18981
42.345;134;121.401;12.5987
42.39;127;120.996;6.00438
42.435;130;120.593;9.40694
42.48;133;120.194;12.8065
42.525;138;119.797;18.203
42.57;133;119.403;13.5967
42.615;135;119.012;15.9875
42.66;144;118.624;25.3756
42.705;141;118.239;22.761
42.75;130;117.856;12.1439
42.795;147;117.476;29.5242
42.84;142;117.098;24.9021
42.885;140;116.722;23.2775
42.93;133;116.349;16.6506
42.975;138;115.979;22.0215
43.02;153;115.61;37.3901
43.065;126;115.243;10.7566
43.11;140;114.879;25.121
43.155;178;114.517;63.4833
43.2;158;114.156;43.8437
43.245;174;113.798;60.2021
43.29;161;113.441;47.5585
43.335;177;113.087;63.9131
43.38;176;112.734;63.2659
43.425;170;112.383;57.6169
43.47;157;112.034;44.9661
43.515;153;111.687;41.3135
43.56;157;111.341;45.6592
43.605;150;110.997;39.0031
43.65;146;110.655;35.3453
43.695;158;110.314;47.6858
43.74;129;109.975;19.0246
43.785;141;109.638;31.3617
43.83;137;109.303;27.697
43.875;127;108.969;18.0307
43.92;133;108.637;24.3626
43.965;142;108.307;33.6928
44.01;144;107.979;36.0212
44.055;140;107.652;32.3479
44.1;149;107.327;41.6728
44.145;144;107.004;36.9959
44.19;139;106.683;32.3172
44.235;128;106.363;21.6367
44.28;137;106.046;30.9543
44.325;142;105.73;36.27
44.37;122;105.416;16.5838
44.415;129;105.104;23.8957
44.46;122;104.795;17.2055
44.505;140;104.487;35.5133
44.55;137;104.181;32.819
44.595;112;103.877;8.12265
44.64;141;103.576;37.4241
44.685;121;103.277;17.7233
44.73;125;102.98;22.0203
44.775;133;102.685;30.315
44.82;131;102.393;28.6073
44.865;118;102.103;15.8972
44.91;125;101.815;23.1847
44.955;137;101.53;35.4696
45;135;101.248;33.7519
45.045;115;100.968;14.0316
45.09;144;100.691;43.3085
45.135;128;100.417;27.5827
45.18;146;100.146;45.854
45.225;135;99.8776;35.1224
45.27;115;99.6122;15.3878
45.315;133;99.3499;33.6501
45.36;129;99.0908;29.9092
45.405;117;98.8348;18.1652
45.45;127;98.5822;28.4178
45.495;118;98.333;19.667
45.54;115;98.0873;16.9127
45.585;136;97.8451;38.1549
45.63;130;97.6066;32.3934
45.675;121;97.3719;23.6281
45.72;116;97.141;18.859
45.765;119;96.9141;22.0859
45.81;122;96.6912;25.3088
45.855;112;96.4724;15.5276
45.9;118;96.2579;21.7421
45.945;111;96.0477;14.9523
45.99;103;95.842;7.15802
46.035;106;95.6408;10.3592
46.08;120;95.4443;24.5557
46.125;109;95.2525;13.7475
46.17;104;95.0657;8.93434
46.215;111;94.8836;16.1164
46.26;114;94.7063;19.2937
46.305;129;94.5336;34.4664
46.35;104;94.3654;9.63457
46.395;117;94.2017;22.7983
46.44;117;94.0422;22.9578
46.485;132;93.8869;38.1131
46.53;103;93.7358;9.2642
46.575;119;93.5887;25.4113
46.62;108;93.4455;14.5545
46.665;117;93.3061;23.6939
46.71;114;93.1704;20.8296
46.755;106;93.0384;12.9616
46.8;113;92.91;20.09
46.845;113;92.785;20.215
46.89;115;92.6633;22.3367
46.935;106;92.545;13.455
46.98;110;92.4299;17.5701
47.025;109;92.3179;16.6821
47.07;117;92.209;24.791
47.115;118;92.1031;25.8969
47.16;109;92;17
47.205;105;91.8997;13.1003
47.25;113;91.8022;21.1978
47.295;93;91.7073;1.29266
47.34;107;91.6151;15.3849
47.385;113;91.5253;21.4747
47.43;102;91.438;10.562
47.475;101;91.3531;9.6469
47.52;106;91.2705;14.7295
47.565;107;91.1901;15.8099
47.61;121;91.1119;29.8881
47.655;122;91.0358;30.9642
47.7;115;90.9618;24.0382
47.745;120;90.8897;29.1103
47.79;106;90.8196;15.1804
47.835;109;90.7513;18.2487
47.88;118;90.6848;27.3152
47.925;103;90.6201;12.3799
47.97;104;90.5571;13.4429
48.015;110;90.4958;19.5042
48.06;120;90.4361;29.5639
48.105;114;90.378;23.622
48.15;115;90.3213;24.6787
48.195;97;90.2662;6.73382
48.24;116;90.2125;25.7875
48.285;105;90.1602;14.8398
48.33;91;90.1092;0.890797
48.375;110;90.0596;19.9404
48.42;100;90.0112;9.98878
48.465;101;89.9641;11.0359
48.51;102;89.9182;12.0818
48.555;100;89.8735;10.1265
48.6;109;89.83;19.17
48.645;119;89.7876;29.2124
48.69;108;89.7462;18.2538
48.735;107;89.7059;17.2941
48.78;95;89.6667;5.33333
48.825;125;89.6284;35.3716
48.87;137;89.5912;47.4088
48.915;100;89.5548;10.4452
48.96;99;89.5195;9.48052
49.005;105;89.485;15.515
49.05;111;89.4515;21.5485
49.095;121;89.4189;31.5811
49.14;110;89.3871;20.6129
49.185;101;89.3562;11.6438
49.23;109;89.3261;19.6739
49.275;109;89.2969;19.7031
49.32;101;89.2686;11.7314
49.365;100;89.241;10.759
49.41;111;89.2143;21.7857
49.455;97;89.1884;7.8116
49.5;93;89.1633;3.83668
49.545;108;89.139;18.861
49.59;103;89.1156;13.8844
49.635;106;89.0929;16.9071
49.68;98;89.071;8.92899
49.725;95;89.0499;5.9501
49.77;99;89.0296;9.97042
49.815;92;89.01;2.98996
49.86;108;88.9913;19.0087
49.905;114;88.9733;25.0267
49.95;124;88.9561;35.0439
49.995;118;88.9397;29.0603
50.04;107;88.9241;18.0759
50.085;92;88.9093;3.09068
50.13;98;88.8953;9.10467
50.175;114;88.8821;25.1179
50.22;102;88.8698;13.1302
50.265;108;88.8581;19.1419
50.31;97;88.8473;8.1527
50.355;99;88.8372;10.1628
50.4;108;88.8279;19.1721
50.445;109;88.8193;20.1807
50.49;101;88.8115;12.1885
50.535;98;88.8043;9.19566
50.58;109;88.7979;20.2021
50.625;103;88.7922;14.2078
50.67;113;88.7871;24.2129
50.715;105;88.7827;16.2173
50.76;112;88.7789;23.2211
50.805;102;88.7757;13.2243
50.85;119;88.7731;30.2269
50.895;112;88.7711;23.2289
50.94;115;88.7696;26.2304
50.985;110;88.7687;21.2313
51.03;101;88.7684;12.2316
51.075;103;88.7686;14.2314
51.12;113;88.7692;24.2308
51.165;119;88.7703;30.2297
51.21;133;88.7717;44.2283
51.255;121;88.7734;32.2266
51.3;88;88.7753;-0.775287
51.345;101;88.7773;12.2227
51.39;127;88.7793;38.2207
51.435;109;88.7812;20.2188
51.48;117;88.783;28.217
51.525;116;88.7846;27.2154
51.57;127;88.7859;38.2141
51.615;112;88.7868;23.2132
51.66;138;88.7872;49.2128
51.705;123;88.787;34.213
51.75;124;88.7863;35.2137
51.795;134;88.7849;45.2151
51.84;123;88.7827;34.2173
51.885;129;88.7797;40.2203
51.93;125;88.7758;36.2242
51.975;119;88.7711;30.2289
52.02;121;88.7653;32.2347
52.065;113;88.7586;24.2414
52.11;129;88.7508;40.2492
52.155;110;88.7418;21.2582
52.2;102;88.7317;13.2683
52.245;122;88.7204;33.2796
52.29;95;88.7079;6.29208
52.335;109;88.6941;20.3059
52.38;119;88.679;30.321
52.425;122;88.6626;33.3374
52.47;115;88.6448;26.3552
52.515;101;88.6256;12.3744
52.56;105;88.605;16.395
52.605;94;88.583;5.417
52.65;115;88.5595;26.4405
52.695;111;88.5345;22.4655
52.74;127;88.508;38.492
52.785;108;88.4799;19.5201
52.83;99;88.4503;10.5497
52.875;128;88.4192;39.5808
52.92;118;88.3865;29.6135
52.965;109;88.3521;20.6479
53.01;103;88.3162;14.6838
53.055;104;88.2787;15.7213
53.1;123;88.2396;34.7604
53.145;119;88.1989;30.8011
53.19;140;88.1566;51.8434
53.235;114;88.1127;25.8873
53.28;120;88.0672;31.9328
53.325;118;88.0201;29.9799
53.37;113;87.9715;25.0285
53.415;117;87.9213;29.0787
53.46;110;87.8695;22.1305
53.505;98;87.8162;10.1838
53.55;115;87.7614;27.2386
53.595;125;87.705;37.295
53.64;118;87.6472;30.3528
53.685;115;87.5879;27.4121
53.73;96;87.5272;8.47278
53.775;110;87.4651;22.5349
53.82;108;87.4016;20.5984
53.865;117;87.3367;29.6633
53.91;104;87.2705;16.7295
53.955;106;87.2031;18.7969
54;118;87.1343;30.8657
54.045;100;87.0644;12.9356
54.09;114;86.9933;27.0067
54.135;109;86.921;22.079
54.18;117;86.8477;30.1523
54.225;123;86.7733;36.2267
54.27;108;86.698;21.302
54.315;107;86.6216;20.3784
54.36;122;86.5444;35.4556
54.405;112;86.4664;25.5336
54.45;105;86.3876;18.6124
54.495;104;86.308;17.692
54.54;101;86.2278;14.7722
54.585;110;86.147;23.853
54.63;117;86.0657;30.9343
54.675;115;85.9839;29.0161
54.72;106;85.9017;20.0983
54.765;102;85.8192;16.1808
54.81;106;85.7365;20.2635
54.855;103;85.6535;17.3465
54.9;106;85.5704;20.4296
54.945;120;85.4871;34.5129
54.99;114;85.4037;28.5963
55.035;114;85.32;28.68
55.08;124;85.2361;38.7639
55.125;101;85.152;15.848
55.17;119;85.0676;33.9324
55.215;103;84.9829;18.0171
55.26;120;84.898;35.102
55.305;118;84.8128;33.1872
55.35;101;84.7274;16.2726
55.395;101;84.6416;16.3584
55.44;115;84.5556;30.4444
55.485;102;84.4693;17.5307
55.53;112;84.3827;27.6173
55.575;118;84.2958;33.7042
55.62;107;84.2087;22.7913
55.665;107;84.1213;22.8787
55.71;108;84.0337;23.9663
55.755;92;83.9458;8.05419
55.8;109;83.8577;25.1423
55.845;105;83.7694;21.2306
55.89;127;83.6809;43.3191
55.935;103;83.5923;19.4077
55.98;88;83.5035;4.49653
56.025;114;83.4145;30.5855
56.07;99;83.3255;15.6745
56.115;101;83.2363;17.7637
56.16;116;83.1471;32.8529
56.205;94;83.0577;10.9423
56.25;89;82.9683;6.03165
56.295;86;82.8789;3.12108
56.34;106;82.7895;23.2105
56.385;98;82.7;15.3
56.43;98;82.6106;15.3894
56.475;90;82.5212;7.4788
56.52;99;82.4319;16.5681
56.565;106;82.3426;23.6574
56.61;104;82.2535;21.7465
56.655;103;82.1646;20.8354
56.7;99;82.0758;16.9242
56.745;87;81.9872;5.01285
56.79;89;81.8988;7.10121
56.835;96;81.8107;14.1893
56.88;94;81.7229;12.2771
56.925;80;81.6355;-1.63545
56.97;87;81.5484;5.45164
57.015;112;81.4616;30.5384
57.06;86;81.3753;4.62473
57.105;108;81.2893;26.7107
57.15;100;81.2036;18.7964
57.195;91;81.1183;9.8817
57.24;95;81.0333;13.9667
57.285;88;80.9487;7.05125
57.33;95;80.8645;14.1355
57.375;98;80.7806;17.2194
57.42;101;80.6971;20.3029
57.465;88;80.614;7.386
57.51;105;80.5313;24.4687
57.555;107;80.4489;26.5511
57.6;93;80.367;12.633
57.645;85;80.2855;4.71454
57.69;89;80.2044;8.79561
57.735;98;80.1238;17.8762
57.78;112;80.0436;31.9564
57.825;96;79.9639;16.0361
57.87;90;79.8848;10.1152
57.915;107;79.8062;27.1938
57.96;96;79.7281;16.2719
58.005;97;79.6506;17.3494
58.05;108;79.5737;28.4263
58.095;85;79.4975;5.50254
58.14;93;79.4219;13.5781
58.185;109;79.347;29.653
58.23;101;79.2728;21.7272
58.275;98;79.1993;18.8007
58.32;103;79.1267;23.8733
58.365;97;79.0549;17.9451
58.41;76;78.9839;-2.98391
58.455;103;78.9138;24.0862
58.5;98;78.8446;19.1554
58.545;97;78.7762;18.2238
58.59;89;78.7086;10.2914
58.635;97;78.6417;18.3583
58.68;87;78.5756;8.42443
58.725;97;78.5101;18.4899
58.77;100;78.4452;21.5548
58.815;99;78.381;20.619
58.86;87;78.3174;8.68264
58.905;120;78.2543;41.7457
58.95;102;78.1917;23.8083
58.995;100;78.1296;21.8704
59.04;98;78.068;19.932
59.085;81;78.0069;2.99315
59.13;96;77.9461;18.0539
59.175;97;77.8858;19.1142
59.22;104;77.8259;26.1741
59.265;98;77.7664;20.2336
59.31;99;77.7072;21.2928
59.355;97;77.6483;19.3517
59.4;106;77.5898;28.4102
59.445;87;77.5316;9.4684
59.49;94;77.4737;16.5263
59.535;93;77.4161;15.5839
59.58;104;77.3589;26.6411
59.625;100;77.3019;22.6981
59.67;84;77.2452;6.75479
59.715;94;77.1888;16.8112
59.76;99;77.1328;21.8672
59.805;86;77.077;8.92303
59.85;92;77.0214;14.9786
59.895;101;76.9662;24.0338
59.94;79;76.9111;2.0889
59.985;90;76.8562;13.1438
60.03;93;76.8015;16.1985
60.075;91;76.747;14.253
60.12;81;76.6925;4.30746
60.165;98;76.6382;21.3618
60.21;83;76.584;6.416
60.255;91;76.5299;14.4701
60.3;114;76.4758;37.5242
60.345;90;76.4218;13.5782
60.39;97;76.3678;20.6322
60.435;93;76.3138;16.6862
60.48;83;76.2599;6.74009
60.525;89;76.206;12.794
60.57;78;76.1521;1.84789
60.615;83;76.0982;6.90178
60.66;82;76.0443;5.95566
60.705;81;75.9905;5.00954
60.75;86;75.9366;10.0634
60.765;96;75.9186;20.0814