File: Test_XRD/02_Sample 2_XRD001/baseline/02_Sample 2_XRD001_basecorr.csv
4.5;162;142.86;19.1403
4.545;147;143.373;3.62741
4.59;157;143.886;13.1145
4.635;142;144.398;-2.39847
4.68;159;144.911;14.0886
4.725;153;145.424;7.57573
4.77;148;145.937;2.06299
4.815;165;146.45;18.5504
4.86;180;146.962;33.0382
4.905;152;147.473;4.52655
4.95;175;147.984;27.0155
4.995;170;148.495;21.5054
5.04;161;149.004;11.9963
5.085;161;149.512;11.4883
5.13;195;150.018;44.9818
5.175;175;150.523;24.4768
5.22;171;151.027;19.9734
5.265;149;151.528;-2.52805
5.31;150;152.028;-2.0275
5.355;146;152.525;-6.5247
5.4;163;153.019;9.98066
5.445;162;153.511;8.48909
5.49;167;153.999;13.0012
5.535;169;154.483;14.5175
5.58;179;154.961;24.0386
5.625;159;155.435;3.56536
5.67;155;155.902;-0.901688
5.715;175;156.362;18.6382
5.76;167;156.814;10.1857
5.805;172;157.258;14.7417
5.85;174;157.693;16.3066
5.895;185;158.119;26.8814
5.94;168;158.533;9.46672
5.985;178;158.937;19.0632
6.03;173;159.328;13.6717
6.075;198;159.707;38.2928
6.12;196;160.072;35.9276
6.165;189;160.423;28.5767
6.21;186;160.759;25.2411
6.255;214;161.078;52.9216
6.3;186;161.381;24.6191
6.345;194;161.666;32.3342
6.39;212;161.932;50.068
6.435;241;162.179;78.8212
6.48;234;162.405;71.5945
6.525;227;162.611;64.389
6.57;212;162.795;49.2053
6.615;224;162.956;61.0442
6.66;267;163.093;103.907
6.705;265;163.207;101.793
6.75;281;163.295;117.705
6.795;332;163.358;168.642
6.84;454;163.393;290.607
6.885;505;163.402;341.598
6.93;658;163.382;494.618
6.975;818;163.334;654.666
7.02;1109;163.257;945.743
7.065;1457;163.149;1293.85
7.11;2005;163.011;1841.99
7.155;2915;162.841;2752.16
7.2;4438;162.641;4275.36
7.245;5036;162.409;4873.59
7.29;1190;162.147;1027.85
7.335;528;161.854;366.146
7.38;433;161.531;271.469
7.425;398;161.18;236.82
7.47;426;160.801;265.199
7.515;522;160.394;361.606
7.56;609;159.962;449.038
7.605;826;159.504;666.496
7.65;991;159.021;831.979
7.695;1312;158.516;1153.48
7.74;2031;157.987;1873.01
7.785;3393;157.438;3235.56
7.83;2298;156.868;2141.13
7.875;484;156.281;327.719
7.92;332;155.676;176.324
7.965;256;155.057;100.943
8.01;216;154.424;61.5759
8.055;186;153.78;32.2198
8.1;187;153.127;33.8733
8.145;178;152.465;25.5346
8.19;183;151.798;31.2019
8.235;156;151.127;4.87344
8.28;161;150.453;10.5473
8.325;152;149.778;2.22187
8.37;154;149.105;4.89524
8.415;161;148.434;12.5657
8.46;166;147.769;18.2314
8.505;161;147.109;13.8907
8.55;153;146.458;6.54173
8.595;138;145.817;-7.81704
8.64;154;145.187;8.81324
8.685;150;144.568;5.43153
8.73;155;143.963;11.0369
8.775;161;143.371;17.6286
8.82;154;142.794;11.2062
8.865;157;142.231;14.7691
8.91;144;141.683;2.31686
8.955;162;141.151;20.849
9;146;140.635;5.3652
9.045;165;140.135;24.8652
9.09;148;139.651;8.34863
9.135;164;139.185;24.8154
9.18;152;138.735;13.2654
9.225;129;138.301;-9.30145
9.27;149;137.885;11.1148
9.315;157;137.486;19.5145
9.36;138;137.102;0.897713
9.405;162;136.735;25.2648
9.45;150;136.384;13.616
9.495;146;136.048;9.95159
9.54;147;135.728;11.2718
9.585;151;135.423;15.5769
9.63;150;135.133;14.8672
9.675;159;134.857;24.1429
9.72;155;134.596;20.4042
9.765;166;134.348;31.6516
9.81;172;134.115;37.8852
9.855;164;133.895;30.1053
9.9;185;133.688;51.3123
9.945;226;133.494;92.5063
9.99;242;133.312;108.688
10.035;287;133.143;153.857
10.08;427;132.986;294.014
10.125;447;132.841;314.159
10.17;285;132.708;152.292
10.215;210;132.586;77.4145
10.26;225;132.475;92.5253
10.305;263;132.375;130.625
10.35;282;132.286;149.714
10.395;259;132.208;126.792
10.44;210;132.141;77.8595
10.485;191;132.083;58.9166
10.53;187;132.037;54.9633
10.575;186;132;53.9999
10.62;214;131.973;82.0265
10.665;260;131.957;128.043
10.71;304;131.95;172.05
10.755;278;131.953;146.047
10.8;329;131.965;197.035
10.845;424;131.987;292.013
10.89;322;132.019;189.981
10.935;217;132.06;84.9401
10.98;215;132.11;82.8898
11.025;195;132.17;62.83
11.07;186;132.239;53.7609
11.115;162;132.318;29.6824
11.16;166;132.406;33.5945
11.205;172;132.503;39.4972
11.25;166;132.609;33.3905
11.295;156;132.726;23.2745
11.34;166;132.851;33.149
11.385;150;132.986;17.0141
11.43;159;133.13;25.8698
11.475;148;133.284;14.716
11.52;151;133.447;17.5527
11.565;157;133.62;23.38
11.61;120;133.802;-13.8023
11.655;141;133.994;7.00588
11.7;169;134.195;34.8049
11.745;180;134.405;45.5951
11.79;155;134.623;20.3767
11.835;166;134.85;31.1502
11.88;144;135.084;8.91585
11.925;141;135.326;5.67401
11.97;154;135.575;18.425
12.015;157;135.831;21.1692
12.06;159;136.093;22.9069
12.105;178;136.362;41.6384
12.15;219;136.636;82.3641
12.195;242;136.916;105.084
12.24;227;137.201;89.7993
12.285;181;137.491;43.5094
12.33;158;137.785;20.2149
12.375;164;138.084;25.9162
12.42;175;138.387;36.6135
12.465;175;138.693;36.3071
12.51;167;139.003;27.9973
12.555;189;139.316;49.6844
12.6;216;139.631;76.3688
12.645;223;139.949;83.0506
12.69;307;140.27;166.73
12.735;299;140.592;158.408
12.78;387;140.916;246.084
12.825;556;141.242;414.758
12.87;621;141.569;479.431
12.915;364;141.897;222.103
12.96;227;142.226;84.7743
13.005;201;142.555;58.4447
13.05;198;142.886;55.1145
13.095;197;143.216;53.7838
13.14;199;143.547;55.4527
13.185;224;143.879;80.1214
13.23;257;144.21;112.79
13.275;234;144.542;89.4584
13.32;229;144.873;84.1269
13.365;284;145.204;138.796
13.41;368;145.535;222.465
13.455;429;145.866;283.134
13.5;316;146.196;169.804
13.545;303;146.526;156.474
13.59;347;146.856;200.144
13.635;497;147.185;349.815
13.68;802;147.514;654.486
13.725;465;147.842;317.158
13.77;269;148.17;120.83
13.815;217;148.498;68.5021
13.86;229;148.826;80.1743
13.905;174;149.154;24.8464
13.95;168;149.482;18.5183
13.995;162;149.81;12.1898
14.04;181;150.139;30.8609
14.085;193;150.469;42.5312
14.13;203;150.799;52.2008
14.175;221;151.131;69.8694
14.22;193;151.463;41.5369
14.265;190;151.797;38.2032
14.31;178;152.132;25.868
14.355;237;152.469;84.5313
14.4;211;152.807;58.1927
14.445;239;153.148;85.8523
14.49;233;153.49;79.5097
14.535;202;153.835;48.1649
14.58;162;154.182;7.81752
14.625;165;154.533;10.4675
14.67;166;154.885;11.1149
14.715;162;155.24;6.76002
14.76;158;155.597;2.40337
14.805;196;155.955;40.0453
14.85;187;156.314;30.6864
14.895;245;156.673;88.3271
14.94;359;157.032;201.968
14.985;466;157.391;308.609
15.03;656;157.749;498.251
15.075;827;158.106;668.894
15.12;506;158.46;347.54
15.165;241;158.813;82.1868
15.21;231;159.164;71.8363
15.255;214;159.512;54.4884
15.3;237;159.857;77.1435
15.345;273;160.198;112.802
15.39;368;160.537;207.463
15.435;328;160.871;167.129
15.48;234;161.202;72.798
15.525;206;161.529;44.4715
15.57;201;161.851;39.1494
15.615;226;162.168;63.8319
15.66;205;162.481;42.5194
15.705;274;162.788;111.212
15.75;376;163.09;212.91
15.795;469;163.387;305.613
15.84;493;163.678;329.322
15.885;432;163.964;268.036
15.93;472;164.243;307.757
15.975;639;164.516;474.484
16.02;425;164.783;260.217
16.065;238;165.044;72.956
16.11;214;165.299;48.7014
16.155;174;165.547;8.45297
16.2;224;165.789;58.2108
16.245;240;166.025;73.975
16.29;261;166.255;94.7454
16.335;327;166.478;160.522
16.38;570;166.695;403.305
16.425;937;166.906;770.094
16.47;1397;167.11;1229.89
16.515;988;167.309;820.691
16.56;827;167.501;659.499
16.605;979;167.688;811.312
16.65;668;167.87;500.13
16.695;356;168.047;187.953
16.74;285;168.219;116.781
16.785;236;168.387;67.6127
16.83;233;168.552;64.4478
16.875;246;168.714;77.286
16.92;246;168.873;77.1268
16.965;303;169.03;133.97
17.01;318;169.186;148.814
17.055;421;169.34;251.66
17.1;499;169.494;329.506
17.145;414;169.648;244.352
17.19;228;169.802;58.1982
17.235;211;169.957;41.043
17.28;168;170.114;-2.11377
17.325;218;170.273;47.7272
17.37;191;170.434;20.5655
17.415;179;170.599;8.40059
17.46;160;170.768;-10.7681
17.505;164;170.941;-6.94109
17.55;177;171.118;5.88177
17.595;191;171.299;19.7011
17.64;172;171.482;0.517693
17.685;192;171.668;20.3325
17.73;210;171.854;38.1464
17.775;218;172.04;45.9602
17.82;208;172.225;35.7749
17.865;199;172.409;26.5913
17.91;186;172.59;13.4103
17.955;203;172.767;30.2328
18;234;172.94;61.0597
18.045;264;173.108;90.8919
18.09;308;173.27;134.73
18.135;363;173.425;189.575
18.18;544;173.571;370.429
18.225;828;173.71;654.29
18.27;964;173.838;790.162
18.315;924;173.957;750.043
18.36;1217;174.064;1042.94
18.405;1072;174.16;897.84
18.45;624;174.244;449.756
18.495;403;174.315;228.685
18.54;327;174.373;152.627
18.585;297;174.418;122.582
18.63;280;174.448;105.552
18.675;318;174.465;143.535
18.72;421;174.467;246.533
18.765;634;174.453;459.547
18.81;750;174.425;575.575
18.855;518;174.38;343.62
18.9;549;174.32;374.68
18.945;819;174.243;644.757
18.99;935;174.15;760.85
19.035;572;174.041;397.959
19.08;307;173.914;133.086
19.125;247;173.771;73.229
19.17;249;173.611;75.389
19.215;191;173.434;17.5658
19.26;208;173.24;34.7596
19.305;217;173.03;43.9704
19.35;215;172.802;42.1983
19.395;231;172.557;58.4434
19.44;217;172.294;44.7059
19.485;217;172.014;44.9859
19.53;220;171.717;48.2834
19.575;215;171.401;43.5987
19.62;233;171.068;61.9318
19.665;224;170.717;53.2829
19.71;287;170.348;116.652
19.755;324;169.961;154.039
19.8;535;169.556;365.444
19.845;832;169.132;662.868
19.89;1265;168.69;1096.31
19.935;1173;168.23;1004.77
19.98;748;167.751;580.249
20.025;719;167.255;551.745
20.07;602;166.741;435.259
20.115;530;166.209;363.791
20.16;447;165.66;281.34
20.205;330;165.094;164.906
20.25;350;164.512;185.488
20.295;407;163.914;243.086
20.34;518;163.3;354.7
20.385;510;162.67;347.33
20.43;409;162.026;246.974
20.475;399;161.367;237.633
20.52;508;160.695;347.305
20.565;632;160.008;471.992
20.61;461;159.309;301.691
20.655;323;158.598;164.402
20.7;310;157.875;152.125
20.745;359;157.141;201.859
20.79;441;156.397;284.603
20.835;522;155.642;366.358
20.88;605;154.879;450.121
20.925;397;154.107;242.893
20.97;357;153.327;203.673
21.015;325;152.54;172.46
21.06;316;151.747;164.253
21.105;374;150.948;223.052
21.15;518;150.145;367.855
21.195;635;149.338;485.662
21.24;636;148.528;487.472
21.285;458;147.716;310.284
21.33;439;146.902;292.098
21.375;372;146.088;225.912
21.42;379;145.275;233.725
21.465;501;144.463;356.537
21.51;668;143.654;524.346
21.555;561;142.849;418.151
21.6;364;142.048;221.952
21.645;272;141.253;130.747
21.69;313;140.465;172.535
21.735;297;139.685;157.315
21.78;358;138.915;219.085
21.825;433;138.155;294.845
21.87;362;137.406;224.594
21.915;253;136.67;116.33
21.96;207;135.948;71.0521
22.005;217;135.241;81.7588
22.05;238;134.551;103.449
22.095;197;133.878;63.1217
22.14;185;133.225;51.7754
22.185;140;132.591;7.40896
22.23;165;131.979;33.0211
22.275;156;131.39;24.6105
22.32;150;130.824;19.1759
22.365;137;130.284;6.71618
22.41;138;129.77;8.22996
22.455;141;129.284;11.716
22.5;116;128.827;-12.8269
22.545;139;128.4;10.6001
22.59;134;128.004;5.99611
22.635;116;127.64;-11.6396
22.68;125;127.308;-2.3075
22.725;125;127.007;-2.0073
22.77;124;126.738;-2.73844
22.815;148;126.5;21.4998
22.86;147;126.292;20.7081
22.905;128;126.113;1.88744
22.95;145;125.961;19.0385
22.995;133;125.838;7.16223
23.04;146;125.741;20.2594
23.085;127;125.669;1.33088
23.13;161;125.622;35.3776
23.175;158;125.6;32.4003
23.22;147;125.6;21.3999
23.265;185;125.623;59.3772
23.31;180;125.667;54.3332
23.355;193;125.731;67.2686
23.4;167;125.816;41.1844
23.445;145;125.919;19.0813
23.49;141;126.04;14.9602
23.535;147;126.178;20.8219
23.58;140;126.333;13.6673
23.625;163;126.503;36.4972
23.67;164;126.688;37.3124
23.715;163;126.886;36.1138
23.76;194;127.098;66.9022
23.805;191;127.322;63.6784
23.85;201;127.557;73.4433
23.895;217;127.802;89.1976
23.94;295;128.058;166.942
23.985;360;128.322;231.678
24.03;332;128.595;203.405
24.075;288;128.875;159.125
24.12;299;129.161;169.839
24.165;272;129.454;142.546
24.21;207;129.751;77.2489
24.255;187;130.053;56.947
24.3;195;130.359;64.6412
24.345;226;130.667;95.3325
24.39;255;130.979;124.021
24.435;295;131.291;163.709
24.48;390;131.605;258.395
24.525;518;131.919;386.081
24.57;747;132.232;614.768
24.615;752;132.545;619.455
24.66;414;132.856;281.144
24.705;268;133.165;134.835
24.75;280;133.472;146.528
24.795;387;133.775;253.225
24.84;399;134.075;264.925
24.885;328;134.371;193.629
24.93;290;134.662;155.338
24.975;348;134.949;213.051
25.02;293;135.23;157.77
25.065;249;135.506;113.494
25.11;195;135.776;59.2238
25.155;195;136.04;58.9603
25.2;218;136.297;81.7034
25.245;208;136.546;71.4537
25.29;207;136.789;70.2113
25.335;193;137.023;55.9767
25.38;168;137.25;30.7502
25.425;225;137.468;87.5321
25.47;229;137.677;91.3227
25.515;282;137.878;144.122
25.56;246;138.068;107.932
25.605;213;138.25;74.7505
25.65;227;138.421;88.5793
25.695;240;138.582;101.418
25.74;310;138.732;171.268
25.785;399;138.871;260.129
25.83;504;139;365
25.875;388;139.117;248.883
25.92;287;139.222;147.778
25.965;226;139.316;86.6842
26.01;211;139.398;71.6024
26.055;204;139.467;64.5327
26.1;185;139.525;45.4753
26.145;178;139.57;38.4303
26.19;193;139.602;53.3978
26.235;185;139.622;45.3781
26.28;200;139.629;60.3713
26.325;208;139.623;68.3774
26.37;229;139.603;89.3968
26.415;231;139.571;91.4294
26.46;219;139.525;79.4754
26.505;224;139.465;84.535
26.55;286;139.392;146.608
26.595;380;139.305;240.695
26.64;632;139.204;492.796
26.685;571;139.089;431.911
26.73;300;138.961;161.039
26.775;246;138.818;107.182
26.82;239;138.661;100.339
26.865;275;138.491;136.509
26.91;299;138.306;160.694
26.955;351;138.108;212.892
27;453;137.896;315.104
27.045;423;137.67;285.33
27.09;297;137.43;159.57
27.135;261;137.177;123.823
27.18;244;136.911;107.089
27.225;245;136.631;108.369
27.27;243;136.338;106.662
27.315;334;136.033;197.967
27.36;549;135.714;413.286
27.405;737;135.383;601.617
27.45;638;135.039;502.961
27.495;444;134.684;309.316
27.54;373;134.316;238.684
27.585;425;133.937;291.063
27.63;389;133.547;255.453
27.675;405;133.146;271.854
27.72;370;132.735;237.265
27.765;289;132.314;156.686
27.81;245;131.883;113.117
27.855;191;131.443;59.5566
27.9;192;130.995;61.005
27.945;170;130.538;39.4616
27.99;179;130.074;48.9259
28.035;158;129.603;28.3975
28.08;189;129.124;59.8758
28.125;166;128.64;37.3603
28.17;153;128.149;24.8507
28.215;163;127.654;35.3463
28.26;193;127.153;65.8468
28.305;204;126.648;77.3516
28.35;183;126.14;56.8603
28.395;183;125.628;57.3723
28.44;202;125.113;76.8872
28.485;176;124.596;51.4043
28.53;142;124.077;17.9233
28.575;136;123.556;12.4436
28.62;157;123.035;33.9646
28.665;168;122.514;45.4859
28.71;204;121.993;82.0069
28.755;193;121.473;71.5271
28.8;145;120.954;24.046
28.845;151;120.437;30.5629
28.89;149;119.923;29.0774
28.935;144;119.411;24.589
28.98;154;118.903;35.097
29.025;183;118.399;64.6009
29.07;168;117.9;50.1002
29.115;165;117.406;47.5943
29.16;130;116.917;13.0826
29.205;130;116.435;13.5646
29.25;137;115.96;21.0397
29.295;159;115.493;43.5073
29.34;133;115.033;17.9669
29.385;138;114.582;23.4178
29.43;150;114.14;35.8596
29.475;124;113.708;10.2916
29.52;124;113.287;10.7133
29.565;132;112.876;19.124
29.61;146;112.477;33.5232
29.655;136;112.09;23.9103
29.7;123;111.715;11.2848
29.745;121;111.354;9.64597
29.79;110;111.007;-1.00662
29.835;97;110.673;-13.6734
29.88;134;110.355;23.6454
29.925;137;110.05;26.9498
29.97;121;109.76;11.2397
30.015;132;109.485;22.5154
30.06;132;109.223;22.7769
30.105;120;108.976;11.0243
30.15;116;108.742;7.25773
30.195;129;108.523;20.4773
30.24;138;108.317;29.6832
30.285;140;108.124;31.8758
30.33;163;107.945;55.0554
30.375;203;107.778;95.2224
30.42;200;107.623;92.377
30.465;190;107.48;82.5196
30.51;168;107.35;60.6504
30.555;152;107.23;44.7698
30.6;147;107.122;39.878
30.645;150;107.025;42.9754
30.69;139;106.938;32.0622
30.735;127;106.861;20.1386
30.78;112;106.795;5.20505
30.825;133;106.738;26.2617
30.87;134;106.691;27.3089
30.915;125;106.653;18.3468
30.96;156;106.624;49.3758
31.005;176;106.604;69.3961
31.05;194;106.592;87.4079
31.095;175;106.588;68.4116
31.14;208;106.593;101.407
31.185;178;106.605;71.3954
31.23;162;106.624;55.376
31.275;141;106.651;34.3494
31.32;139;106.684;32.3158
31.365;148;106.725;41.2754
31.41;153;106.772;46.2285
31.455;184;106.825;77.1752
31.5;184;106.884;77.1158
31.545;166;106.95;59.0504
31.59;143;107.021;35.9793
31.635;155;107.097;47.9027
31.68;137;107.179;29.8208
31.725;158;107.266;50.7337
31.77;145;107.358;37.6416
31.815;169;107.455;61.5447
31.86;157;107.557;49.4432
31.905;189;107.663;81.3373
31.95;209;107.773;101.227
31.995;211;107.887;103.113
32.04;186;108.005;77.9945
32.085;175;108.128;66.8724
32.13;144;108.253;35.7467
32.175;159;108.383;50.6174
32.22;162;108.515;53.4847
32.265;164;108.651;55.3487
32.31;186;108.79;77.2096
32.355;202;108.933;93.0674
32.4;185;109.078;75.9223
32.445;155;109.226;45.7743
32.49;163;109.376;53.6237
32.535;133;109.53;23.4704
32.58;149;109.685;39.3146
32.625;155;109.844;45.1564
32.67;149;110.004;38.9958
32.715;167;110.167;56.8329
32.76;134;110.332;23.6679
32.805;128;110.499;17.5007
32.85;112;110.668;1.33156
32.895;123;110.84;12.1604
32.94;133;111.013;21.9874
32.985;157;111.187;45.8126
33.03;149;111.364;37.636
33.075;173;111.542;61.4577
33.12;191;111.722;79.2778
33.165;249;111.904;137.096
33.21;255;112.087;142.913
33.255;242;112.271;129.729
33.3;184;112.457;71.5433
33.345;184;112.644;71.3561
33.39;155;112.832;42.1675
33.435;158;113.022;44.9775
33.48;170;113.214;56.7862
33.525;164;113.407;50.5935
33.57;170;113.601;56.3994
33.615;176;113.796;62.2039
33.66;174;113.993;60.0071
33.705;164;114.191;49.8088
33.75;146;114.391;31.6091
33.795;143;114.592;28.408
33.84;136;114.795;21.2054
33.885;143;114.999;28.0012
33.93;143;115.204;27.7955
33.975;113;115.412;-2.41171
34.02;135;115.621;19.3794
34.065;169;115.831;53.169
34.11;156;116.043;39.957
34.155;177;116.257;60.7435
34.2;159;116.472;42.5285
34.245;151;116.688;34.3119
34.29;168;116.906;51.0939
34.335;164;117.126;46.8745
34.38;175;117.346;57.6535
34.425;195;117.569;77.4311
34.47;168;117.793;50.2073
34.515;186;118.018;67.9819
34.56;198;118.245;79.7551
34.605;197;118.473;78.5268
34.65;205;118.703;86.297
34.695;157;118.934;38.0656
34.74;165;119.167;45.8326
34.785;112;119.402;-7.40207
34.83;132;119.638;12.3617
34.875;134;119.876;14.1238
34.92;123;120.115;2.88465
34.965;150;120.356;29.6442
35.01;129;120.597;8.4028
35.055;131;120.84;10.1605
35.1;128;121.082;6.91755
35.145;137;121.326;15.6742
35.19;150;121.569;28.4308
35.235;156;121.812;34.1876
35.28;186;122.055;63.9448
35.325;207;122.297;84.7028
35.37;167;122.538;44.4617
35.415;165;122.778;42.2219
35.46;146;123.016;22.9837
35.505;167;123.253;43.7472
35.55;195;123.487;71.5126
35.595;202;123.72;78.2804
35.64;191;123.949;67.0506
35.685;162;124.176;37.8236
35.73;164;124.4;39.5996
35.775;141;124.621;16.3787
35.82;141;124.839;16.1612
35.865;167;125.053;41.9473
35.91;190;125.263;64.7373
35.955;189;125.469;63.5313
36;180;125.67;54.3296
36.045;178;125.868;52.1323
36.09;189;126.06;62.9397
36.135;193;126.248;66.7519
36.18;222;126.431;95.5692
36.225;211;126.608;84.3917
36.27;239;126.78;112.22
36.315;264;126.947;137.053
36.36;321;127.108;193.892
36.405;362;127.263;234.737
36.45;303;127.412;175.588
36.495;273;127.555;145.445
36.54;248;127.691;120.309
36.585;205;127.821;77.1786
36.63;222;127.945;94.0546
36.675;187;128.063;58.9371
36.72;205;128.174;76.8261
36.765;182;128.278;53.7217
36.81;152;128.376;23.6239
36.855;160;128.467;31.5328
36.9;152;128.552;23.4484
36.945;162;128.629;33.3707
36.99;185;128.7;56.2999
37.035;201;128.764;72.2358
37.08;170;128.821;41.1787
37.125;156;128.872;27.1284
37.17;164;128.915;35.0851
37.215;202;128.951;73.0487
37.26;185;128.981;56.0192
37.305;227;129.003;97.9968
37.35;223;129.019;93.9813
37.395;190;129.027;60.9728
37.44;167;129.029;37.9713
37.485;180;129.023;50.9768
37.53;197;129.011;67.9892
37.575;166;128.991;37.0086
37.62;168;128.965;39.0348
37.665;158;128.932;29.068
37.71;174;128.892;45.108
37.755;186;128.845;57.1548
37.8;180;128.792;51.2084
37.845;186;128.731;57.2688
37.89;212;128.664;83.3358
37.935;196;128.591;67.4094
37.98;208;128.51;79.4896
38.025;189;128.424;60.5764
38.07;196;128.33;67.6696
38.115;202;128.231;73.7691
38.16;236;128.125;107.875
38.205;219;128.013;90.987
38.25;213;127.895;85.1051
38.295;175;127.771;47.2293
38.34;152;127.641;24.3593
38.385;175;127.505;47.4951
38.43;174;127.363;46.6366
38.475;202;127.216;74.7837
38.52;198;127.064;70.9362
38.565;189;126.906;62.0939
38.61;166;126.743;39.2568
38.655;149;126.575;22.4248
38.7;145;126.402;18.5976
38.745;185;126.225;58.7752
38.79;173;126.043;46.9573
38.835;178;125.856;52.1439
38.88;177;125.665;51.3347
38.925;199;125.47;73.5297
38.97;171;125.271;45.7287
39.015;206;125.069;80.9314
39.06;199;124.862;74.1377
39.105;188;124.653;63.3475
39.15;164;124.439;39.5605
39.195;164;124.223;39.7766
39.24;140;124.004;15.9955
39.285;127;123.783;3.21713
39.33;142;123.559;18.4412
39.375;152;123.332;28.6678
39.42;127;123.103;3.89682
39.465;153;122.872;30.1282
39.51;140;122.638;17.362
39.555;154;122.402;31.5982
39.6;149;122.163;26.8367
39.645;175;121.922;53.0775
39.69;153;121.679;31.3206
39.735;151;121.434;29.566
39.78;157;121.186;35.8136
39.825;148;120.937;27.0633
39.87;143;120.685;22.3152
39.915;152;120.431;31.5692
39.96;149;120.175;28.8252
40.005;147;119.917;27.0832
40.05;157;119.657;37.3431
40.095;162;119.395;42.6049
40.14;126;119.131;6.86857
40.185;140;118.866;21.134
40.23;145;118.599;26.4011
40.275;136;118.33;17.6699
40.32;159;118.06;40.9402
40.365;158;117.788;40.2121
40.41;157;117.515;39.4853
40.455;178;117.24;60.76
40.5;162;116.964;45.0359
40.545;178;116.687;61.3131
40.59;153;116.409;36.5914
40.635;189;116.129;72.8707
40.68;165;115.849;49.1509
40.725;192;115.568;76.432
40.77;150;115.286;34.7139
40.815;159;115.004;43.9963
40.86;180;114.721;65.2793
40.905;162;114.437;47.5627
40.95;134;114.154;19.8464
40.995;123;113.87;9.13032
41.04;130;113.586;16.4142
41.085;119;113.302;5.69807
41.13;139;113.018;25.9817
41.175;141;112.735;28.265
41.22;110;112.452;-2.45221
41.265;148;112.17;35.83
41.31;152;111.888;40.1117
41.355;181;111.607;69.3929
41.4;175;111.326;63.6736
41.445;165;111.046;53.9538
41.49;174;110.766;63.2336
41.535;167;110.487;56.5129
41.58;152;110.208;41.7917
41.625;160;109.93;50.0701
41.67;146;109.652;36.348
41.715;137;109.375;27.6255
41.76;140;109.098;30.9024
41.805;130;108.821;21.1789
41.85;139;108.545;30.4548
41.895;159;108.27;50.7302
41.94;152;107.995;44.0051
41.985;151;107.721;43.2793
42.03;146;107.447;38.553
42.075;154;107.174;46.826
42.12;136;106.902;29.0983
42.165;150;106.63;43.37
42.21;160;106.359;53.6408
42.255;163;106.089;56.9109
42.3;162;105.82;56.1801
42.345;174;105.552;68.4485
42.39;142;105.284;36.7158
42.435;147;105.018;41.9821
42.48;137;104.753;32.2474
42.525;137;104.489;32.5114
42.57;140;104.226;35.7742
42.615;129;103.964;25.0357
42.66;136;103.704;32.2958
42.705;162;103.445;58.5545
42.75;159;103.188;55.812
42.795;157;102.932;54.0685
42.84;183;102.676;80.3239
42.885;172;102.421;69.5785
42.93;170;102.168;67.8323
42.975;141;101.914;39.0855
43.02;148;101.662;46.3382
43.065;155;101.41;53.5904
43.11;139;101.158;37.8422
43.155;162;100.906;61.0937
43.2;140;100.655;39.345
43.245;182;100.404;81.5962
43.29;155;100.153;54.8474
43.335;148;99.9015;48.0985
43.38;139;99.6502;39.3498
43.425;136;99.3988;36.6012
43.47;166;99.1472;66.8528
43.515;147;98.8954;48.1046
43.56;165;98.6432;66.3568
43.605;141;98.3907;42.6093
43.65;145;98.1379;46.8621
43.695;128;97.8846;30.1154
43.74;149;97.6309;51.3691
43.785;154;97.3768;56.6232
43.83;173;97.1221;75.8779
43.875;139;96.867;42.133
43.92;125;96.6113;28.3887
43.965;132;96.3551;35.6449
44.01;134;96.0983;37.9017
44.055;131;95.841;35.159
44.1;137;95.5831;41.4169
44.145;120;95.3247;24.6753
44.19;102;95.0658;6.93425
44.235;117;94.8062;22.1938
44.28;121;94.5462;26.4538
44.325;132;94.2856;37.7144
44.37;131;94.0245;36.9755
44.415;125;93.7628;31.2372
44.46;162;93.5007;68.4993
44.505;162;93.2381;68.7619
44.55;146;92.9751;53.0249
44.595;121;92.7116;28.2884
44.64;141;92.4477;48.5523
44.685;122;92.1835;29.8165
44.73;121;91.919;29.081
44.775;114;91.6542;22.3458
44.82;115;91.3892;23.6108
44.865;100;91.124;8.87601
44.91;107;90.8587;16.1413
44.955;101;90.5933;10.4067
45;110;90.3279;19.6721
45.045;113;90.0625;22.9375
45.09;108;89.7972;18.2028
45.135;107;89.532;17.468
45.18;103;89.2671;13.7329
45.225;121;89.0024;31.9976
45.27;133;88.738;44.262
45.315;120;88.4741;31.5259
45.36;110;88.2106;21.7894
45.405;112;87.9476;24.0524
45.45;138;87.6852;50.3148
45.495;131;87.4236;43.5764
45.54;133;87.1626;45.8374
45.585;110;86.9025;23.0975
45.63;118;86.6434;31.3566
45.675;99;86.3852;12.6148
45.72;91;86.1282;4.87182
45.765;93;85.8723;7.12768
45.81;93;85.6178;7.38225
45.855;103;85.3646;17.6354
45.9;105;85.1128;19.8872
45.945;118;84.8627;33.1373
45.99;114;84.6142;29.3858
46.035;121;84.3675;36.6325
46.08;111;84.1226;26.8774
46.125;107;83.8797;23.1203
46.17;112;83.6389;28.3611
46.215;98;83.4002;14.5998
46.26;119;83.1639;35.8361
46.305;92;82.9299;9.07005
46.35;84;82.6985;1.30148
46.395;100;82.4697;17.5303
46.44;97;82.2437;14.7563
46.485;95;82.0204;12.9796
46.53;105;81.8002;23.1998
46.575;90;81.5831;8.41692
46.62;78;81.3692;-3.36916
46.665;87;81.1585;5.84145
46.71;127;80.9513;46.0487
46.755;105;80.7475;24.2525
46.8;79;80.547;-1.54703
46.845;89;80.3501;8.64994
46.89;109;80.1566;28.8434
46.935;94;79.9665;14.0335
46.98;107;79.7799;27.2201
47.025;109;79.5968;29.4032
47.07;96;79.4171;16.5829
47.115;98;79.2408;18.7592
47.16;105;79.0681;25.9319
47.205;102;78.8988;23.1012
47.25;106;78.7329;27.2671
47.295;113;78.5706;34.4294
47.34;108;78.4118;29.5882
47.385;120;78.2564;41.7436
47.43;117;78.1046;38.8954
47.475;100;77.9564;22.0436
47.52;96;77.8117;18.1883
47.565;94;77.6707;16.3293
47.61;91;77.5333;13.4667
47.655;105;77.3995;27.6005
47.7;111;77.2695;33.7305
47.745;108;77.1431;30.8569
47.79;97;77.0206;19.9794
47.835;112;76.9018;35.0982
47.88;99;76.7869;22.2131
47.925;113;76.6758;36.3242
47.97;127;76.5687;50.4313
48.015;100;76.4656;23.5344
48.06;97;76.3665;20.6335
48.105;94;76.2714;17.7286
48.15;96;76.1805;19.8195
48.195;123;76.0938;46.9062
48.24;99;76.0113;22.9887
48.285;106;75.9331;30.0669
48.33;105;75.8592;29.1408
48.375;101;75.7898;25.2102
48.42;80;75.7249;4.2751
48.465;99;75.6646;23.3354
48.51;96;75.6088;20.3912
48.555;100;75.5578;24.4422
48.6;93;75.5116;17.4884
48.645;89;75.4702;13.5298
48.69;79;75.4338;3.5662
48.735;89;75.4024;13.5976
48.78;76;75.376;0.623957
48.825;82;75.3549;6.64512
48.87;96;75.3389;20.6611
48.915;113;75.3278;37.6722
48.96;94;75.3216;18.6784
49.005;97;75.3201;21.6799
49.05;100;75.3231;24.6769
49.095;100;75.3305;24.6695
49.14;97;75.3422;21.6578
49.185;100;75.3579;24.6421
49.23;110;75.3776;34.6224
49.275;114;75.4012;38.5988
49.32;116;75.4284;40.5716
49.365;107;75.4592;31.5408
49.41;86;75.4933;10.5067
49.455;103;75.5308;27.4692
49.5;110;75.5715;34.4285
49.545;106;75.6152;30.3848
49.59;108;75.6618;32.3382
49.635;105;75.7112;29.2888
49.68;98;75.7633;22.2367
49.725;101;75.8179;25.1821
49.77;91;75.8751;15.1249
49.815;97;75.9345;21.0655
49.86;106;75.9962;30.0038
49.905;109;76.06;32.94
49.95;111;76.1258;34.8742
49.995;105;76.1935;28.8065
50.04;102;76.263;25.737
50.085;123;76.3343;46.6657
50.13;124;76.4071;47.5929
50.175;122;76.4815;45.5185
50.22;112;76.5573;35.4427
50.265;118;76.6344;41.3656
50.31;104;76.7127;27.2873
50.355;104;76.7923;27.2077
50.4;98;76.8729;21.1271
50.445;102;76.9545;25.0455
50.49;118;77.0371;40.9629
50.535;94;77.1205;16.8795
50.58;99;77.2048;21.7952
50.625;101;77.2897;23.7103
50.67;104;77.3753;26.6247
50.715;97;77.4615;19.5385
50.76;80;77.5482;2.45176
50.805;90;77.6354;12.3646
50.85;81;77.723;3.27702
50.895;100;77.8109;22.1891
50.94;99;77.899;21.101
50.985;97;77.9872;19.0128
51.03;109;78.0754;30.9246
51.075;103;78.1635;24.8365
51.12;104;78.2514;25.7486
51.165;109;78.339;30.661
51.21;97;78.4262;18.5738
51.255;104;78.5129;25.4871
51.3;111;78.599;32.401
51.345;121;78.6845;42.3155
51.39;111;78.7692;32.2308
51.435;98;78.8531;19.1469
51.48;93;78.936;14.064
51.525;100;79.018;20.982
51.57;113;79.0988;33.9012
51.615;94;79.1785;14.8215
51.66;91;79.257;11.743
51.705;100;79.3342;20.6658
51.75;124;79.4099;44.5901
51.795;134;79.4843;54.5157
51.84;131;79.5571;51.4429
51.885;124;79.6283;44.3717
51.93;128;79.698;48.302
51.975;114;79.7659;34.2341
52.02;101;79.8321;21.1679
52.065;103;79.8965;23.1035
52.11;130;79.9591;50.0409
52.155;120;80.0198;39.9802
52.2;99;80.0786;18.9214
52.245;107;80.1355;26.8645
52.29;94;80.1904;13.8096
52.335;103;80.2433;22.7567
52.38;128;80.2942;47.7058
52.425;105;80.3429;24.6571
52.47;134;80.3896;53.6104
52.515;110;80.4342;29.5658
52.56;120;80.4767;39.5233
52.605;114;80.517;33.483
52.65;134;80.5552;53.4448
52.695;125;80.5912;44.4088
52.74;113;80.625;32.375
52.785;122;80.6567;41.3433
52.83;109;80.6862;28.3138
52.875;118;80.7135;37.2865
52.92;108;80.7387;27.2613
52.965;116;80.7616;35.2384
53.01;110;80.7825;29.2175
53.055;114;80.8011;33.1989
53.1;103;80.8177;22.1823
53.145;106;80.8321;25.1679
53.19;93;80.8444;12.1556
53.235;96;80.8547;15.1453
53.28;91;80.8629;10.1371
53.325;97;80.8691;16.1309
53.37;95;80.8732;14.1268
53.415;97;80.8754;16.1246
53.46;89;80.8757;8.12434
53.505;119;80.874;38.126
53.55;124;80.8704;43.1296
53.595;97;80.8649;16.1351
53.64;115;80.8577;34.1423
53.685;107;80.8486;26.1514
53.73;109;80.8378;28.1622
53.775;104;80.8253;23.1747
53.82;110;80.8112;29.1888
53.865;111;80.7954;30.2046
53.91;97;80.7781;16.2219
53.955;113;80.7593;32.2407
54;114;80.739;33.261
54.045;121;80.7174;40.2826
54.09;113;80.6944;32.3056
54.135;114;80.6701;33.3299
54.18;99;80.6446;18.3554
54.225;103;80.618;22.382
54.27;104;80.5903;23.4097
54.315;81;80.5616;0.43842
54.36;96;80.532;15.468
54.405;92;80.5015;11.4985
54.45;91;80.4703;10.5297
54.495;109;80.4383;28.5617
54.54;102;80.4058;21.5942
54.585;87;80.3727;6.62735
54.63;80;80.3391;-0.339091
54.675;105;80.3052;24.6948
54.72;113;80.2709;32.7291
54.765;114;80.2364;33.7636
54.81;99;80.2018;18.7982
54.855;92;80.1671;11.8329
54.9;78;80.1324;-2.13241
54.945;89;80.0978;8.90221
54.99;90;80.0633;9.93671
55.035;88;80.0289;7.97107
55.08;91;79.9947;11.0053
55.125;104;79.9607;24.0393
55.17;94;79.9269;14.0731
55.215;100;79.8934;20.1066
55.26;78;79.8602;-1.86016
55.305;90;79.8272;10.1728
55.35;96;79.7946;16.2054
55.395;91;79.7622;11.2378
55.44;111;79.73;31.27
55.485;86;79.698;6.30203
55.53;92;79.666;12.334
55.575;95;79.6339;15.3661
55.62;95;79.6017;15.3983
55.665;99;79.5693;19.4307
55.71;104;79.5366;24.4634
55.755;109;79.5036;29.4964
55.8;105;79.4701;25.5299
55.845;112;79.4361;32.5639
55.89;110;79.4016;30.5984
55.935;108;79.3663;28.6337
55.98;122;79.3304;42.6696
56.025;107;79.2937;27.7063
56.07;98;79.2561;18.7439
56.115;100;79.2177;20.7823
56.16;116;79.1783;36.8217
56.205;108;79.1379;28.8621
56.25;96;79.0964;16.9036
56.295;92;79.0538;12.9462
56.34;87;79.0101;7.9899
56.385;87;78.9652;8.03484
56.43;109;78.919;30.081
56.475;99;78.8715;20.1285
56.52;100;78.8227;21.1773
56.565;112;78.7725;33.2275
56.61;87;78.7209;8.27912
56.655;85;78.6678;6.3322
56.7;107;78.6132;28.3868
56.745;96;78.5571;17.4429
56.79;110;78.4994;31.5006
56.835;106;78.4401;27.5599
56.88;104;78.3792;25.6208
56.925;103;78.3166;24.6834
56.97;91;78.2523;12.7477
57.015;78;78.1863;-0.186296
57.06;110;78.1185;31.8815
57.105;98;78.049;19.951
57.15;113;77.9776;35.0224
57.195;89;77.9044;11.0956
57.24;106;77.8294;28.1706
57.285;89;77.7524;11.2476
57.33;97;77.6736;19.3264
57.375;117;77.5928;39.4072
57.42;109;77.5101;31.4899
57.465;109;77.4254;31.5746
57.51;96;77.3388;18.6612
57.555;98;77.2502;20.7498
57.6;79;77.1596;1.84037
57.645;128;77.0671;50.9329
57.69;105;76.9725;28.0275
57.735;104;76.8759;27.1241
57.78;101;76.7773;24.2227
57.825;90;76.6768;13.3232
57.87;90;76.5742;13.4258
57.915;113;76.4697;36.5303
57.96;86;76.3632;9.63681
58.005;100;76.2547;23.7453
58.05;90;76.1443;13.8557
58.095;89;76.0319;12.9681
58.14;93;75.9175;17.0825
58.185;94;75.8013;18.1987
58.23;99;75.6831;23.3169
58.275;94;75.5631;18.4369
58.32;95;75.4412;19.5588
58.365;89;75.3174;13.6826
58.41;78;75.1918;2.8082
58.455;89;75.0644;13.9356
58.5;103;74.9352;28.0648
58.545;91;74.8043;16.1957
58.59;75;74.6716;0.328415
58.635;96;74.5372;21.4628
58.68;94;74.4011;19.5989
58.725;95;74.2635;20.7365
58.77;93;74.1241;18.8759
58.815;88;73.9833;14.0167
58.86;78;73.8408;4.15917
58.905;96;73.6969;22.3031
58.95;89;73.5515;15.4485
58.995;94;73.4047;20.5953
59.04;91;73.2564;17.7436
59.085;107;73.1069;33.8931
59.13;85;72.956;12.044
59.175;91;72.8039;18.1961
59.22;103;72.6505;30.3495
59.265;103;72.496;30.504
59.31;92;72.3404;19.6596
59.355;84;72.1837;11.8163
59.4;114;72.026;41.974
59.445;97;71.8673;25.1327
59.49;95;71.7078;23.2922
59.535;92;71.5474;20.4526
59.58;93;71.3862;21.6138
59.625;89;71.2244;17.7756
59.67;101;71.0618;29.9382
59.715;75;70.8987;4.10127
59.76;76;70.7351;5.26488
59.805;95;70.5711;24.4289
59.85;81;70.4066;10.5934
59.895;81;70.2419;10.7581
59.94;69;70.0769;-1.07693
59.985;80;69.9118;10.0882
60.03;75;69.7466;5.25343
60.075;100;69.5813;30.4187
60.12;68;69.4159;-1.41594
60.165;74;69.2506;4.7494
60.21;91;69.0853;21.9147
60.255;87;68.9199;18.0801
60.3;90;68.7546;21.2454
60.345;98;68.5892;29.4108
60.39;89;68.4238;20.5762
60.435;92;68.2583;23.7417
60.48;76;68.0929;7.9071
60.525;97;67.9274;29.0726
60.57;100;67.762;32.238
60.615;73;67.5965;5.40352
60.66;85;67.431;17.569
60.705;86;67.2655;18.7345
60.75;84;67.1001;16.8999
60.765;88;67.0449;20.9551