File: Test_XRD/0_rawdata/03_Sample 3_XRD001.xy
   4.5000      255
   4.5450      258
   4.5900      251
   4.6350      259
   4.6800      285
   4.7250      289
   4.7700      297
   4.8150      302
   4.8600      316
   4.9050      295
   4.9500      306
   4.9950      301
   5.0400      324
   5.0850      320
   5.1300      321
   5.1750      355
   5.2200      387
   5.2650      352
   5.3100      372
   5.3550      335
   5.4000      386
   5.4450      422
   5.4900      417
   5.5350      432
   5.5800      411
   5.6250      447
   5.6700      468
   5.7150      494
   5.7600      482
   5.8050      490
   5.8500      511
   5.8950      548
   5.9400      514
   5.9850      560
   6.0300      566
   6.0750      585
   6.1200      635
   6.1650      654
   6.2100      693
   6.2550      704
   6.3000      739
   6.3450      738
   6.3900      844
   6.4350      785
   6.4800      858
   6.5250      845
   6.5700      891
   6.6150      971
   6.6600      977
   6.7050     1022
   6.7500     1070
   6.7950     1095
   6.8400     1172
   6.8850     1193
   6.9300     1190
   6.9750     1257
   7.0200     1331
   7.0650     1353
   7.1100     1478
   7.1550     1507
   7.2000     1363
   7.2450     1200
   7.2900     1034
   7.3350     1007
   7.3800      903
   7.4250      818
   7.4700      770
   7.5150      679
   7.5600      709
   7.6050      642
   7.6500      614
   7.6950      549
   7.7400      530
   7.7850      485
   7.8300      461
   7.8750      423
   7.9200      449
   7.9650      397
   8.0100      386
   8.0550      359
   8.1000      344
   8.1450      310
   8.1900      324
   8.2350      285
   8.2800      299
   8.3250      276
   8.3700      292
   8.4150      265
   8.4600      288
   8.5050      257
   8.5500      247
   8.5950      259
   8.6400      261
   8.6850      243
   8.7300      248
   8.7750      226
   8.8200      237
   8.8650      236
   8.9100      247
   8.9550      238
   9.0000      240
   9.0450      211
   9.0900      231
   9.1350      239
   9.1800      234
   9.2250      224
   9.2700      227
   9.3150      231
   9.3600      222
   9.4050      219
   9.4500      204
   9.4950      208
   9.5400      229
   9.5850      208
   9.6300      212
   9.6750      223
   9.7200      213
   9.7650      212
   9.8100      229
   9.8550      230
   9.9000      239
   9.9450      254
   9.9900      226
  10.0350      225
  10.0800      213
  10.1250      226
  10.1700      231
  10.2150      237
  10.2600      231
  10.3050      229
  10.3500      226
  10.3950      236
  10.4400      225
  10.4850      227
  10.5300      212
  10.5750      225
  10.6200      222
  10.6650      236
  10.7100      226
  10.7550      224
  10.8000      237
  10.8450      213
  10.8900      200
  10.9350      214
  10.9800      205
  11.0250      253
  11.0700      238
  11.1150      235
  11.1600      227
  11.2050      228
  11.2500      246
  11.2950      227
  11.3400      224
  11.3850      226
  11.4300      200
  11.4750      221
  11.5200      219
  11.5650      210
  11.6100      237
  11.6550      213
  11.7000      216
  11.7450      205
  11.7900      213
  11.8350      230
  11.8800      235
  11.9250      240
  11.9700      213
  12.0150      238
  12.0600      218
  12.1050      234
  12.1500      236
  12.1950      228
  12.2400      252
  12.2850      233
  12.3300      252
  12.3750      213
  12.4200      246
  12.4650      245
  12.5100      221
  12.5550      265
  12.6000      237
  12.6450      264
  12.6900      238
  12.7350      262
  12.7800      293
  12.8250      269
  12.8700      252
  12.9150      280
  12.9600      272
  13.0050      291
  13.0500      296
  13.0950      268
  13.1400      285
  13.1850      261
  13.2300      295
  13.2750      289
  13.3200      284
  13.3650      282
  13.4100      327
  13.4550      287
  13.5000      281
  13.5450      309
  13.5900      310
  13.6350      301
  13.6800      295
  13.7250      343
  13.7700      300
  13.8150      301
  13.8600      335
  13.9050      303
  13.9500      292
  13.9950      308
  14.0400      320
  14.0850      278
  14.1300      335
  14.1750      365
  14.2200      293
  14.2650      255
  14.3100      247
  14.3550      267
  14.4000      296
  14.4450      231
  14.4900      246
  14.5350      256
  14.5800      242
  14.6250      255
  14.6700      247
  14.7150      243
  14.7600      252
  14.8050      236
  14.8500      251
  14.8950      266
  14.9400      233
  14.9850      250
  15.0300      241
  15.0750      252
  15.1200      248
  15.1650      236
  15.2100      240
  15.2550      242
  15.3000      249
  15.3450      267
  15.3900      256
  15.4350      241
  15.4800      247
  15.5250      289
  15.5700      275
  15.6150      291
  15.6600      298
  15.7050      310
  15.7500      357
  15.7950      424
  15.8400      565
  15.8850      605
  15.9300      603
  15.9750      703
  16.0200      554
  16.0650      426
  16.1100      367
  16.1550      338
  16.2000      329
  16.2450      362
  16.2900      359
  16.3350      341
  16.3800      363
  16.4250      362
  16.4700      333
  16.5150      333
  16.5600      398
  16.6050      377
  16.6500      386
  16.6950      353
  16.7400      374
  16.7850      370
  16.8300      380
  16.8750      376
  16.9200      391
  16.9650      378
  17.0100      356
  17.0550      369
  17.1000      378
  17.1450      373
  17.1900      357
  17.2350      391
  17.2800      389
  17.3250      386
  17.3700      371
  17.4150      384
  17.4600      374
  17.5050      353
  17.5500      390
  17.5950      374
  17.6400      366
  17.6850      373
  17.7300      373
  17.7750      391
  17.8200      417
  17.8650      375
  17.9100      402
  17.9550      403
  18.0000      381
  18.0450      425
  18.0900      384
  18.1350      382
  18.1800      394
  18.2250      403
  18.2700      399
  18.3150      364
  18.3600      395
  18.4050      404
  18.4500      429
  18.4950      418
  18.5400      445
  18.5850      443
  18.6300      414
  18.6750      415
  18.7200      452
  18.7650      441
  18.8100      494
  18.8550      641
  18.9000      847
  18.9450     1089
  18.9900     1105
  19.0350      857
  19.0800      609
  19.1250      521
  19.1700      444
  19.2150      430
  19.2600      414
  19.3050      429
  19.3500      407
  19.3950      435
  19.4400      425
  19.4850      410
  19.5300      384
  19.5750      409
  19.6200      388
  19.6650      421
  19.7100      392
  19.7550      416
  19.8000      398
  19.8450      403
  19.8900      404
  19.9350      411
  19.9800      447
  20.0250      512
  20.0700      575
  20.1150      550
  20.1600      549
  20.2050      514
  20.2500      456
  20.2950      496
  20.3400      468
  20.3850      555
  20.4300      470
  20.4750      431
  20.5200      421
  20.5650      404
  20.6100      456
  20.6550      393
  20.7000      372
  20.7450      347
  20.7900      382
  20.8350      382
  20.8800      372
  20.9250      348
  20.9700      324
  21.0150      339
  21.0600      333
  21.1050      357
  21.1500      354
  21.1950      341
  21.2400      339
  21.2850      343
  21.3300      331
  21.3750      318
  21.4200      325
  21.4650      326
  21.5100      328
  21.5550      345
  21.6000      353
  21.6450      371
  21.6900      344
  21.7350      296
  21.7800      323
  21.8250      297
  21.8700      308
  21.9150      309
  21.9600      261
  22.0050      278
  22.0500      296
  22.0950      284
  22.1400      269
  22.1850      254
  22.2300      287
  22.2750      275
  22.3200      279
  22.3650      285
  22.4100      283
  22.4550      289
  22.5000      260
  22.5450      280
  22.5900      249
  22.6350      286
  22.6800      262
  22.7250      285
  22.7700      243
  22.8150      254
  22.8600      265
  22.9050      276
  22.9500      246
  22.9950      256
  23.0400      228
  23.0850      254
  23.1300      252
  23.1750      234
  23.2200      241
  23.2650      269
  23.3100      252
  23.3550      266
  23.4000      251
  23.4450      238
  23.4900      256
  23.5350      260
  23.5800      275
  23.6250      232
  23.6700      262
  23.7150      244
  23.7600      262
  23.8050      260
  23.8500      255
  23.8950      273
  23.9400      263
  23.9850      259
  24.0300      246
  24.0750      251
  24.1200      249
  24.1650      250
  24.2100      253
  24.2550      266
  24.3000      257
  24.3450      264
  24.3900      305
  24.4350      274
  24.4800      304
  24.5250      292
  24.5700      334
  24.6150      333
  24.6600      334
  24.7050      294
  24.7500      373
  24.7950      380
  24.8400      394
  24.8850      341
  24.9300      306
  24.9750      292
  25.0200      270
  25.0650      249
  25.1100      281
  25.1550      274
  25.2000      262
  25.2450      254
  25.2900      252
  25.3350      268
  25.3800      273
  25.4250      258
  25.4700      242
  25.5150      247
  25.5600      293
  25.6050      231
  25.6500      258
  25.6950      298
  25.7400      293
  25.7850      327
  25.8300      323
  25.8750      300
  25.9200      310
  25.9650      281
  26.0100      292
  26.0550      279
  26.1000      290
  26.1450      272
  26.1900      272
  26.2350      274
  26.2800      281
  26.3250      301
  26.3700      312
  26.4150      290
  26.4600      274
  26.5050      281
  26.5500      265
  26.5950      263
  26.6400      268
  26.6850      275
  26.7300      252
  26.7750      273
  26.8200      260
  26.8650      293
  26.9100      301
  26.9550      322
  27.0000      321
  27.0450      325
  27.0900      304
  27.1350      289
  27.1800      289
  27.2250      238
  27.2700      281
  27.3150      281
  27.3600      255
  27.4050      292
  27.4500      272
  27.4950      273
  27.5400      290
  27.5850      271
  27.6300      285
  27.6750      235
  27.7200      276
  27.7650      263
  27.8100      242
  27.8550      260
  27.9000      246
  27.9450      229
  27.9900      241
  28.0350      216
  28.0800      234
  28.1250      221
  28.1700      238
  28.2150      229
  28.2600      213
  28.3050      208
  28.3500      198
  28.3950      214
  28.4400      197
  28.4850      209
  28.5300      216
  28.5750      212
  28.6200      194
  28.6650      221
  28.7100      206
  28.7550      171
  28.8000      215
  28.8450      192
  28.8900      213
  28.9350      201
  28.9800      204
  29.0250      227
  29.0700      215
  29.1150      203
  29.1600      188
  29.2050      195
  29.2500      191
  29.2950      207
  29.3400      177
  29.3850      192
  29.4300      210
  29.4750      180
  29.5200      175
  29.5650      188
  29.6100      176
  29.6550      175
  29.7000      154
  29.7450      162
  29.7900      161
  29.8350      157
  29.8800      172
  29.9250      193
  29.9700      186
  30.0150      157
  30.0600      167
  30.1050      163
  30.1500      150
  30.1950      157
  30.2400      182
  30.2850      163
  30.3300      165
  30.3750      161
  30.4200      148
  30.4650      164
  30.5100      162
  30.5550      154
  30.6000      142
  30.6450      166
  30.6900      150
  30.7350      150
  30.7800      153
  30.8250      167
  30.8700      149
  30.9150      155
  30.9600      152
  31.0050      164
  31.0500      159
  31.0950      147
  31.1400      153
  31.1850      149
  31.2300      156
  31.2750      154
  31.3200      163
  31.3650      148
  31.4100      159
  31.4550      156
  31.5000      156
  31.5450      160
  31.5900      142
  31.6350      159
  31.6800      169
  31.7250      164
  31.7700      164
  31.8150      158
  31.8600      153
  31.9050      176
  31.9500      161
  31.9950      175
  32.0400      167
  32.0850      182
  32.1300      167
  32.1750      166
  32.2200      164
  32.2650      204
  32.3100      180
  32.3550      166
  32.4000      147
  32.4450      164
  32.4900      159
  32.5350      153
  32.5800      164
  32.6250      166
  32.6700      165
  32.7150      169
  32.7600      187
  32.8050      171
  32.8500      176
  32.8950      164
  32.9400      182
  32.9850      175
  33.0300      217
  33.0750      218
  33.1200      248
  33.1650      273
  33.2100      285
  33.2550      282
  33.3000      246
  33.3450      255
  33.3900      184
  33.4350      165
  33.4800      194
  33.5250      192
  33.5700      160
  33.6150      157
  33.6600      175
  33.7050      156
  33.7500      153
  33.7950      154
  33.8400      151
  33.8850      151
  33.9300      148
  33.9750      177
  34.0200      163
  34.0650      161
  34.1100      165
  34.1550      164
  34.2000      168
  34.2450      162
  34.2900      166
  34.3350      170
  34.3800      159
  34.4250      157
  34.4700      156
  34.5150      175
  34.5600      174
  34.6050      164
  34.6500      183
  34.6950      169
  34.7400      180
  34.7850      184
  34.8300      187
  34.8750      139
  34.9200      160
  34.9650      169
  35.0100      162
  35.0550      183
  35.1000      144
  35.1450      171
  35.1900      184
  35.2350      158
  35.2800      177
  35.3250      174
  35.3700      160
  35.4150      172
  35.4600      171
  35.5050      174
  35.5500      188
  35.5950      178
  35.6400      164
  35.6850      162
  35.7300      170
  35.7750      176
  35.8200      195
  35.8650      168
  35.9100      166
  35.9550      161
  36.0000      188
  36.0450      184
  36.0900      180
  36.1350      186
  36.1800      195
  36.2250      206
  36.2700      188
  36.3150      204
  36.3600      207
  36.4050      187
  36.4500      188
  36.4950      193
  36.5400      184
  36.5850      182
  36.6300      200
  36.6750      189
  36.7200      178
  36.7650      179
  36.8100      179
  36.8550      206
  36.9000      200
  36.9450      169
  36.9900      185
  37.0350      188
  37.0800      169
  37.1250      192
  37.1700      195
  37.2150      161
  37.2600      182
  37.3050      205
  37.3500      193
  37.3950      189
  37.4400      182
  37.4850      189
  37.5300      171
  37.5750      195
  37.6200      200
  37.6650      192
  37.7100      165
  37.7550      220
  37.8000      195
  37.8450      188
  37.8900      177
  37.9350      214
  37.9800      190
  38.0250      190
  38.0700      195
  38.1150      199
  38.1600      210
  38.2050      209
  38.2500      212
  38.2950      197
  38.3400      210
  38.3850      206
  38.4300      212
  38.4750      231
  38.5200      212
  38.5650      219
  38.6100      205
  38.6550      217
  38.7000      223
  38.7450      209
  38.7900      205
  38.8350      191
  38.8800      194
  38.9250      184
  38.9700      206
  39.0150      206
  39.0600      208
  39.1050      191
  39.1500      191
  39.1950      182
  39.2400      165
  39.2850      192
  39.3300      172
  39.3750      183
  39.4200      180
  39.4650      173
  39.5100      192
  39.5550      198
  39.6000      196
  39.6450      164
  39.6900      169
  39.7350      182
  39.7800      184
  39.8250      154
  39.8700      157
  39.9150      194
  39.9600      147
  40.0050      183
  40.0500      173
  40.0950      180
  40.1400      158
  40.1850      173
  40.2300      170
  40.2750      188
  40.3200      168
  40.3650      168
  40.4100      159
  40.4550      161
  40.5000      172
  40.5450      145
  40.5900      171
  40.6350      154
  40.6800      168
  40.7250      176
  40.7700      185
  40.8150      174
  40.8600      189
  40.9050      164
  40.9500      146
  40.9950      168
  41.0400      146
  41.0850      165
  41.1300      155
  41.1750      145
  41.2200      166
  41.2650      167
  41.3100      138
  41.3550      162
  41.4000      149
  41.4450      142
  41.4900      172
  41.5350      138
  41.5800      150
  41.6250      168
  41.6700      138
  41.7150      157
  41.7600      149
  41.8050      145
  41.8500      150
  41.8950      142
  41.9400      153
  41.9850      133
  42.0300      149
  42.0750      155
  42.1200      136
  42.1650      136
  42.2100      142
  42.2550      142
  42.3000      126
  42.3450      134
  42.3900      127
  42.4350      130
  42.4800      133
  42.5250      138
  42.5700      133
  42.6150      135
  42.6600      144
  42.7050      141
  42.7500      130
  42.7950      147
  42.8400      142
  42.8850      140
  42.9300      133
  42.9750      138
  43.0200      153
  43.0650      126
  43.1100      140
  43.1550      178
  43.2000      158
  43.2450      174
  43.2900      161
  43.3350      177
  43.3800      176
  43.4250      170
  43.4700      157
  43.5150      153
  43.5600      157
  43.6050      150
  43.6500      146
  43.6950      158
  43.7400      129
  43.7850      141
  43.8300      137
  43.8750      127
  43.9200      133
  43.9650      142
  44.0100      144
  44.0550      140
  44.1000      149
  44.1450      144
  44.1900      139
  44.2350      128
  44.2800      137
  44.3250      142
  44.3700      122
  44.4150      129
  44.4600      122
  44.5050      140
  44.5500      137
  44.5950      112
  44.6400      141
  44.6850      121
  44.7300      125
  44.7750      133
  44.8200      131
  44.8650      118
  44.9100      125
  44.9550      137
  45.0000      135
  45.0450      115
  45.0900      144
  45.1350      128
  45.1800      146
  45.2250      135
  45.2700      115
  45.3150      133
  45.3600      129
  45.4050      117
  45.4500      127
  45.4950      118
  45.5400      115
  45.5850      136
  45.6300      130
  45.6750      121
  45.7200      116
  45.7650      119
  45.8100      122
  45.8550      112
  45.9000      118
  45.9450      111
  45.9900      103
  46.0350      106
  46.0800      120
  46.1250      109
  46.1700      104
  46.2150      111
  46.2600      114
  46.3050      129
  46.3500      104
  46.3950      117
  46.4400      117
  46.4850      132
  46.5300      103
  46.5750      119
  46.6200      108
  46.6650      117
  46.7100      114
  46.7550      106
  46.8000      113
  46.8450      113
  46.8900      115
  46.9350      106
  46.9800      110
  47.0250      109
  47.0700      117
  47.1150      118
  47.1600      109
  47.2050      105
  47.2500      113
  47.2950       93
  47.3400      107
  47.3850      113
  47.4300      102
  47.4750      101
  47.5200      106
  47.5650      107
  47.6100      121
  47.6550      122
  47.7000      115
  47.7450      120
  47.7900      106
  47.8350      109
  47.8800      118
  47.9250      103
  47.9700      104
  48.0150      110
  48.0600      120
  48.1050      114
  48.1500      115
  48.1950       97
  48.2400      116
  48.2850      105
  48.3300       91
  48.3750      110
  48.4200      100
  48.4650      101
  48.5100      102
  48.5550      100
  48.6000      109
  48.6450      119
  48.6900      108
  48.7350      107
  48.7800       95
  48.8250      125
  48.8700      137
  48.9150      100
  48.9600       99
  49.0050      105
  49.0500      111
  49.0950      121
  49.1400      110
  49.1850      101
  49.2300      109
  49.2750      109
  49.3200      101
  49.3650      100
  49.4100      111
  49.4550       97
  49.5000       93
  49.5450      108
  49.5900      103
  49.6350      106
  49.6800       98
  49.7250       95
  49.7700       99
  49.8150       92
  49.8600      108
  49.9050      114
  49.9500      124
  49.9950      118
  50.0400      107
  50.0850       92
  50.1300       98
  50.1750      114
  50.2200      102
  50.2650      108
  50.3100       97
  50.3550       99
  50.4000      108
  50.4450      109
  50.4900      101
  50.5350       98
  50.5800      109
  50.6250      103
  50.6700      113
  50.7150      105
  50.7600      112
  50.8050      102
  50.8500      119
  50.8950      112
  50.9400      115
  50.9850      110
  51.0300      101
  51.0750      103
  51.1200      113
  51.1650      119
  51.2100      133
  51.2550      121
  51.3000       88
  51.3450      101
  51.3900      127
  51.4350      109
  51.4800      117
  51.5250      116
  51.5700      127
  51.6150      112
  51.6600      138
  51.7050      123
  51.7500      124
  51.7950      134
  51.8400      123
  51.8850      129
  51.9300      125
  51.9750      119
  52.0200      121
  52.0650      113
  52.1100      129
  52.1550      110
  52.2000      102
  52.2450      122
  52.2900       95
  52.3350      109
  52.3800      119
  52.4250      122
  52.4700      115
  52.5150      101
  52.5600      105
  52.6050       94
  52.6500      115
  52.6950      111
  52.7400      127
  52.7850      108
  52.8300       99
  52.8750      128
  52.9200      118
  52.9650      109
  53.0100      103
  53.0550      104
  53.1000      123
  53.1450      119
  53.1900      140
  53.2350      114
  53.2800      120
  53.3250      118
  53.3700      113
  53.4150      117
  53.4600      110
  53.5050       98
  53.5500      115
  53.5950      125
  53.6400      118
  53.6850      115
  53.7300       96
  53.7750      110
  53.8200      108
  53.8650      117
  53.9100      104
  53.9550      106
  54.0000      118
  54.0450      100
  54.0900      114
  54.1350      109
  54.1800      117
  54.2250      123
  54.2700      108
  54.3150      107
  54.3600      122
  54.4050      112
  54.4500      105
  54.4950      104
  54.5400      101
  54.5850      110
  54.6300      117
  54.6750      115
  54.7200      106
  54.7650      102
  54.8100      106
  54.8550      103
  54.9000      106
  54.9450      120
  54.9900      114
  55.0350      114
  55.0800      124
  55.1250      101
  55.1700      119
  55.2150      103
  55.2600      120
  55.3050      118
  55.3500      101
  55.3950      101
  55.4400      115
  55.4850      102
  55.5300      112
  55.5750      118
  55.6200      107
  55.6650      107
  55.7100      108
  55.7550       92
  55.8000      109
  55.8450      105
  55.8900      127
  55.9350      103
  55.9800       88
  56.0250      114
  56.0700       99
  56.1150      101
  56.1600      116
  56.2050       94
  56.2500       89
  56.2950       86
  56.3400      106
  56.3850       98
  56.4300       98
  56.4750       90
  56.5200       99
  56.5650      106
  56.6100      104
  56.6550      103
  56.7000       99
  56.7450       87
  56.7900       89
  56.8350       96
  56.8800       94
  56.9250       80
  56.9700       87
  57.0150      112
  57.0600       86
  57.1050      108
  57.1500      100
  57.1950       91
  57.2400       95
  57.2850       88
  57.3300       95
  57.3750       98
  57.4200      101
  57.4650       88
  57.5100      105
  57.5550      107
  57.6000       93
  57.6450       85
  57.6900       89
  57.7350       98
  57.7800      112
  57.8250       96
  57.8700       90
  57.9150      107
  57.9600       96
  58.0050       97
  58.0500      108
  58.0950       85
  58.1400       93
  58.1850      109
  58.2300      101
  58.2750       98
  58.3200      103
  58.3650       97
  58.4100       76
  58.4550      103
  58.5000       98
  58.5450       97
  58.5900       89
  58.6350       97
  58.6800       87
  58.7250       97
  58.7700      100
  58.8150       99
  58.8600       87
  58.9050      120
  58.9500      102
  58.9950      100
  59.0400       98
  59.0850       81
  59.1300       96
  59.1750       97
  59.2200      104
  59.2650       98
  59.3100       99
  59.3550       97
  59.4000      106
  59.4450       87
  59.4900       94
  59.5350       93
  59.5800      104
  59.6250      100
  59.6700       84
  59.7150       94
  59.7600       99
  59.8050       86
  59.8500       92
  59.8950      101
  59.9400       79
  59.9850       90
  60.0300       93
  60.0750       91
  60.1200       81
  60.1650       98
  60.2100       83
  60.2550       91
  60.3000      114
  60.3450       90
  60.3900       97
  60.4350       93
  60.4800       83
  60.5250       89
  60.5700       78
  60.6150       83
  60.6600       82
  60.7050       81
  60.7500       86
  60.7650       96