File: XRD/Test_XRD/01_Sample 1_XRD001/baseline/01_Sample 1_XRD001_basecorr.csv
4.5;169;150.607;18.393
4.545;162;150.861;11.1388
4.59;161;151.115;9.88472
4.635;184;151.369;32.6306
4.68;189;151.624;37.3765
4.725;178;151.878;26.1223
4.77;154;152.132;1.86814
4.815;177;152.386;24.6139
4.86;151;152.64;-1.64034
4.905;165;152.895;12.1053
4.95;186;153.149;32.851
4.995;172;153.403;18.5966
5.04;183;153.658;29.3423
5.085;173;153.912;19.088
5.13;187;154.166;32.8338
5.175;208;154.42;53.5796
5.22;202;154.674;47.3256
5.265;161;154.928;6.07166
5.31;186;155.182;30.8179
5.355;180;155.436;24.5642
5.4;187;155.689;31.3107
5.445;180;155.943;24.0573
5.49;156;156.196;-0.195895
5.535;188;156.449;31.551
5.58;182;156.702;25.2982
5.625;177;156.955;20.0454
5.67;170;157.207;12.7929
5.715;173;157.46;15.5405
5.76;173;157.712;15.2883
5.805;167;157.964;9.03626
5.85;165;158.216;6.7844
5.895;182;158.467;23.5327
5.94;161;158.719;2.28118
5.985;172;158.97;13.0298
6.03;150;159.221;-9.22118
6.075;160;159.472;0.528493
6.12;165;159.721;5.27933
6.165;176;159.968;16.0319
6.21;187;160.213;26.7866
6.255;169;160.456;8.54419
6.3;178;160.695;17.305
6.345;157;160.93;-3.93031
6.39;157;161.161;-4.16128
6.435;184;161.387;22.6129
6.48;173;161.607;11.3929
6.525;187;161.82;25.1799
6.57;189;162.025;26.9751
6.615;188;162.221;25.7794
6.66;205;162.406;42.5942
6.705;198;162.58;35.4205
6.75;229;162.741;66.2595
6.795;248;162.888;85.1124
6.84;321;163.02;157.98
6.885;405;163.136;241.864
6.93;537;163.234;373.766
6.975;695;163.315;531.685
7.02;1014;163.376;850.624
7.065;1327;163.416;1163.58
7.11;1969;163.435;1805.56
7.155;2966;163.432;2802.57
7.2;5086;163.406;4922.59
7.245;6365;163.356;6201.64
7.29;1120;163.283;956.717
7.335;367;163.187;203.813
7.38;319;163.068;155.932
7.425;320;162.927;157.073
7.47;346;162.764;183.236
7.515;381;162.58;218.42
7.56;577;162.376;414.624
7.605;704;162.152;541.848
7.65;996;161.908;834.092
7.695;1414;161.645;1252.35
7.74;2265;161.365;2103.63
7.785;4244;161.068;4082.93
7.83;2776;160.754;2615.25
7.875;490;160.425;329.575
7.92;324;160.083;163.917
7.965;292;159.73;132.27
8.01;241;159.366;81.6345
8.055;162;158.993;3.00711
8.1;178;158.613;19.3868
8.145;150;158.228;-8.22796
8.19;179;157.839;21.1612
8.235;167;157.447;9.55289
8.28;151;157.054;-6.05424
8.325;165;156.662;8.33846
8.37;165;156.27;8.72976
8.415;159;155.882;3.1185
8.46;164;155.496;8.50359
8.505;161;155.116;5.88411
8.55;139;154.741;-15.7407
8.595;176;154.372;21.6285
8.64;170;154.009;15.9914
8.685;161;153.652;7.34776
8.73;154;153.303;0.697329
8.775;159;152.96;6.03987
8.82;170;152.625;17.3751
8.865;178;152.297;25.7029
8.91;157;151.977;5.02289
8.955;151;151.665;-0.665131
9;156;151.361;4.63859
9.045;173;151.066;21.9339
9.09;164;150.779;13.2206
9.135;165;150.502;14.4985
9.18;184;150.232;33.7675
9.225;187;149.972;37.0275
9.27;164;149.722;14.2783
9.315;171;149.48;21.5197
9.36;150;149.248;0.751586
9.405;136;149.026;-13.0262
9.45;147;148.814;-1.81364
9.495;165;148.611;16.3894
9.54;155;148.417;6.58317
9.585;173;148.232;24.768
9.63;170;148.056;21.9442
9.675;175;147.888;27.112
9.72;169;147.728;21.2718
9.765;188;147.576;40.4237
9.81;191;147.432;43.5682
9.855;176;147.295;28.7054
9.9;228;147.164;80.8356
9.945;219;147.041;71.9591
9.99;268;146.924;121.076
10.035;361;146.813;214.187
10.08;481;146.708;334.292
10.125;565;146.609;418.391
10.17;276;146.515;129.485
10.215;230;146.426;83.5738
10.26;239;146.343;92.6572
10.305;236;146.264;89.7356
10.35;270;146.191;123.809
10.395;302;146.122;155.878
10.44;203;146.058;56.9421
10.485;207;145.998;61.0018
10.53;196;145.943;50.0571
10.575;217;145.892;71.1082
10.62;253;145.845;107.155
10.665;298;145.802;152.198
10.71;356;145.763;210.237
10.755;316;145.728;170.272
10.8;393;145.697;247.303
10.845;514;145.67;368.33
10.89;322;145.646;176.354
10.935;204;145.627;58.3733
10.98;248;145.611;102.389
11.025;213;145.599;67.4012
11.07;196;145.591;50.4094
11.115;171;145.586;25.4136
11.16;177;145.586;31.4139
11.205;172;145.59;26.4102
11.25;166;145.598;20.4025
11.295;191;145.609;45.3906
11.34;190;145.625;44.3746
11.385;168;145.646;22.3544
11.43;157;145.67;11.3299
11.475;163;145.699;17.3011
11.52;154;145.732;8.26808
11.565;175;145.769;29.2308
11.61;169;145.811;23.1894
11.655;172;145.856;26.1438
11.7;148;145.906;2.09402
11.745;162;145.96;16.0403
11.79;184;146.017;37.9827
11.835;163;146.078;16.9215
11.88;177;146.143;30.857
11.925;141;146.211;-5.21076
11.97;176;146.281;29.7185
12.015;173;146.355;26.6452
12.06;173;146.43;26.5696
12.105;193;146.508;46.492
12.15;223;146.587;76.4127
12.195;257;146.668;110.332
12.24;248;146.749;101.251
12.285;163;146.831;16.1687
12.33;167;146.914;20.0862
12.375;166;146.996;19.0037
12.42;162;147.078;14.9216
12.465;173;147.16;25.84
12.51;183;147.241;35.7592
12.555;172;147.32;24.6797
12.6;215;147.398;67.6017
12.645;237;147.475;89.5254
12.69;355;147.549;207.451
12.735;317;147.621;169.379
12.78;431;147.69;283.31
12.825;650;147.756;502.244
12.87;830;147.819;682.181
12.915;357;147.879;209.121
12.96;244;147.936;96.0642
13.005;191;147.989;43.0112
13.05;194;148.038;45.9619
13.095;180;148.084;31.9163
13.14;186;148.125;37.8746
13.185;236;148.163;87.8369
13.23;248;148.197;99.8032
13.275;238;148.226;89.7737
13.32;198;148.252;49.7483
13.365;282;148.273;133.727
13.41;418;148.289;269.711
13.455;509;148.302;360.698
13.5;337;148.309;188.691
13.545;300;148.313;151.687
13.59;374;148.312;225.688
13.635;583;148.306;434.694
13.68;979;148.296;830.704
13.725;531;148.282;382.718
13.77;203;148.263;54.7366
13.815;195;148.241;46.759
13.86;191;148.215;42.7852
13.905;167;148.185;18.8151
13.95;183;148.151;34.8485
13.995;144;148.115;-4.11481
14.04;169;148.075;20.925
14.085;165;148.032;16.9679
14.13;188;147.986;40.0138
14.175;232;147.937;84.0629
14.22;185;147.885;37.1149
14.265;202;147.83;54.1699
14.31;197;147.772;49.2279
14.355;231;147.711;83.2889
14.4;232;147.647;84.3526
14.445;233;147.581;85.4193
14.49;274;147.511;126.489
14.535;214;147.439;66.5607
14.58;168;147.365;20.6354
14.625;151;147.287;3.71272
14.67;146;147.208;-1.20752
14.715;152;147.125;4.87484
14.76;178;147.04;30.9601
14.805;153;146.952;6.04839
14.85;200;146.86;53.1401
14.895;267;146.765;120.235
14.94;343;146.665;196.335
14.985;571;146.562;424.438
15.03;769;146.454;622.546
15.075;1080;146.342;933.658
15.12;559;146.225;412.775
15.165;267;146.103;120.897
15.21;174;145.977;28.0234
15.255;189;145.845;43.1548
15.3;214;145.709;68.2911
15.345;275;145.568;129.432
15.39;367;145.422;221.578
15.435;425;145.271;279.729
15.48;218;145.115;72.885
15.525;195;144.954;50.0457
15.57;213;144.789;68.2112
15.615;236;144.619;91.3814
15.66;208;144.444;63.5564
15.705;262;144.264;117.736
15.75;399;144.08;254.92
15.795;492;143.891;348.109
15.84;494;143.698;350.302
15.885;430;143.501;286.499
15.93;462;143.3;318.7
15.975;614;143.094;470.906
16.02;415;142.885;272.115
16.065;208;142.672;65.3275
16.11;185;142.457;42.5434
16.155;173;142.238;30.7622
16.2;184;142.016;41.9837
16.245;219;141.792;77.2076
16.29;217;141.566;75.4337
16.335;348;141.338;206.662
16.38;570;141.109;428.891
16.425;1045;140.878;904.122
16.47;1899;140.646;1758.35
16.515;1165;140.414;1024.59
16.56;861;140.182;720.818
16.605;1194;139.95;1054.05
16.65;708;139.72;568.28
16.695;341;139.492;201.508
16.74;196;139.267;56.7326
16.785;208;139.046;68.9538
16.83;205;138.83;66.1703
16.875;234;138.619;95.3814
16.92;219;138.414;80.5861
16.965;256;138.216;117.784
17.01;282;138.027;143.973
17.055;468;137.847;330.153
17.1;695;137.676;557.324
17.145;433;137.516;295.484
17.19;222;137.368;84.6317
17.235;180;137.233;42.767
17.28;153;137.111;15.8886
17.325;160;137.004;22.9955
17.37;150;136.913;13.0868
17.415;155;136.839;18.1614
17.46;133;136.781;-3.78141
17.505;130;136.743;-6.74264
17.55;134;136.723;-2.72289
17.595;133;136.722;-3.72217
17.64;146;136.74;9.26014
17.685;161;136.775;24.2251
17.73;177;136.826;40.1741
17.775;182;136.892;45.1082
17.82;171;136.971;34.0287
17.865;157;137.063;19.937
17.91;141;137.166;3.83413
17.955;146;137.279;8.72147
18;140;137.4;2.60023
18.045;165;137.528;27.4717
18.09;242;137.663;104.337
18.135;373;137.803;235.197
18.18;558;137.946;420.054
18.225;973;138.091;834.909
18.27;1107;138.238;968.762
18.315;1052;138.385;913.615
18.36;1569;138.531;1430.47
18.405;1452;138.675;1313.32
18.45;622;138.816;483.184
18.495;316;138.954;177.046
18.54;306;139.088;166.912
18.585;249;139.217;109.783
18.63;239;139.341;99.6592
18.675;280;139.458;140.542
18.72;373;139.569;233.431
18.765;745;139.672;605.328
18.81;900;139.767;760.233
18.855;514;139.853;374.147
18.9;470;139.93;330.07
18.945;780;139.998;640.002
18.99;1047;140.055;906.945
19.035;576;140.102;435.898
19.08;275;140.138;134.862
19.125;248;140.163;107.837
19.17;192;140.177;51.8233
19.215;179;140.178;38.8215
19.26;175;140.168;34.8317
19.305;187;140.146;46.8542
19.35;173;140.111;32.8891
19.395;186;140.063;45.9369
19.44;161;140.002;20.9977
19.485;171;139.928;31.0717
19.53;190;139.841;50.1594
19.575;166;139.739;26.2609
19.62;181;139.624;41.3764
19.665;181;139.494;41.5063
19.71;222;139.349;82.6507
19.755;299;139.19;159.81
19.8;472;139.016;332.984
19.845;942;138.826;803.174
19.89;1597;138.621;1458.38
19.935;1437;138.4;1298.6
19.98;857;138.164;718.836
20.025;873;137.912;735.088
20.07;591;137.645;453.355
20.115;470;137.363;332.637
20.16;363;137.066;225.934
20.205;304;136.754;167.246
20.25;312;136.427;175.573
20.295;443;136.087;306.913
20.34;530;135.732;394.268
20.385;411;135.365;275.635
20.43;316;134.984;181.016
20.475;338;134.59;203.41
20.52;462;134.185;327.815
20.565;759;133.767;625.233
20.61;481;133.338;347.662
20.655;306;132.899;173.101
20.7;258;132.448;125.552
20.745;314;131.988;182.012
20.79;463;131.519;331.481
20.835;673;131.042;541.958
20.88;676;130.556;545.444
20.925;420;130.062;289.938
20.97;262;129.562;132.438
21.015;303;129.056;173.944
21.06;274;128.545;145.455
21.105;334;128.029;205.971
21.15;533;127.509;405.491
21.195;843;126.986;716.014
21.24;709;126.461;582.539
21.285;452;125.934;326.066
21.33;478;125.407;352.593
21.375;379;124.881;254.119
21.42;367;124.355;242.645
21.465;571;123.832;447.168
21.51;816;123.313;692.687
21.555;636;122.797;513.203
21.6;343;122.287;220.713
21.645;253;121.784;131.216
21.69;249;121.288;127.712
21.735;264;120.801;143.199
21.78;355;120.324;234.676
21.825;483;119.859;363.141
21.87;414;119.405;294.595
21.915;223;118.966;104.034
21.96;199;118.541;80.4593
22.005;211;118.132;92.868
22.05;233;117.741;115.259
22.095;219;117.368;101.632
22.14;153;117.015;35.9847
22.185;162;116.684;45.3162
22.23;138;116.375;21.6251
22.275;123;116.09;6.91021
22.32;124;115.83;8.17015
22.365;132;115.596;16.4036
22.41;109;115.391;-6.3906
22.455;110;115.214;-5.21387
22.5;109;115.067;-6.06702
22.545;122;114.95;7.04966
22.59;135;114.864;20.1364
22.635;120;114.806;5.1937
22.68;129;114.778;14.2219
22.725;119;114.778;4.22153
22.77;146;114.807;31.1934
22.815;116;114.862;1.13822
22.86;148;114.943;33.057
22.905;146;115.049;30.9506
22.95;132;115.18;16.8199
22.995;127;115.334;11.6657
23.04;124;115.511;8.48891
23.085;140;115.71;24.2904
23.13;135;115.929;19.0711
23.175;123;116.168;6.83173
23.22;129;116.427;12.5733
23.265;161;116.703;44.2965
23.31;193;116.998;76.0024
23.355;241;117.308;123.692
23.4;181;117.635;63.3653
23.445;130;117.976;12.024
23.49;132;118.331;13.6688
23.535;121;118.7;2.30028
23.58;120;119.081;0.919455
23.625;133;119.473;13.5271
23.67;138;119.876;18.1241
23.715;152;120.289;31.7112
23.76;162;120.711;41.2892
23.805;173;121.141;51.8591
23.85;175;121.578;53.4216
23.895;202;122.023;79.9775
23.94;316;122.472;193.528
23.985;479;122.927;356.073
24.03;346;123.386;222.614
24.075;303;123.848;179.152
24.12;329;124.313;204.687
24.165;301;124.78;176.22
24.21;225;125.248;99.7517
24.255;169;125.717;43.2831
24.3;175;126.185;48.8147
24.345;181;126.653;54.3472
24.39;234;127.119;106.881
24.435;276;127.583;148.417
24.48;365;128.043;236.957
24.525;576;128.5;447.5
24.57;960;128.953;831.047
24.615;951;129.402;821.598
24.66;408;129.844;278.156
24.705;247;130.281;116.719
24.75;295;130.712;164.288
24.795;387;131.136;255.864
24.84;398;131.553;266.447
24.885;268;131.962;136.038
24.93;314;132.363;181.637
24.975;402;132.756;269.244
25.02;337;133.141;203.859
25.065;219;133.516;85.4841
25.11;173;133.882;39.1181
25.155;164;134.238;29.7617
25.2;185;134.585;50.4153
25.245;200;134.921;65.0792
25.29;201;135.246;65.7536
25.335;170;135.561;34.4389
25.38;178;135.865;42.1354
25.425;203;136.157;66.8432
25.47;256;136.437;119.563
25.515;337;136.706;200.294
25.56;244;136.962;107.038
25.605;196;137.205;58.7946
25.65;195;137.436;57.5638
25.695;235;137.654;97.3459
25.74;258;137.859;120.141
25.785;396;138.05;257.95
25.83;590;138.227;451.773
25.875;443;138.391;304.609
25.92;265;138.541;126.459
25.965;233;138.676;94.324
26.01;200;138.797;61.2029
26.055;165;138.904;26.0961
26.1;168;138.996;29.0039
26.145;187;139.074;47.9263
26.19;165;139.137;25.8635
26.235;163;139.185;23.8154
26.28;177;139.218;37.7823
26.325;219;139.236;79.7642
26.37;228;139.239;88.7612
26.415;164;139.227;24.7735
26.46;175;139.199;35.801
26.505;175;139.156;35.8439
26.55;223;139.098;83.9022
26.595;440;139.024;300.976
26.64;775;138.935;636.065
26.685;672;138.83;533.17
26.73;321;138.709;182.291
26.775;209;138.573;70.4272
26.82;234;138.421;95.5788
26.865;260;138.254;121.746
26.91;283;138.072;144.928
26.955;372;137.874;234.126
27;498;137.662;360.338
27.045;415;137.434;277.566
27.09;298;137.192;160.808
27.135;261;136.935;124.065
27.18;217;136.664;80.3364
27.225;217;136.378;80.622
27.27;230;136.078;93.9217
27.315;309;135.765;173.235
27.36;578;135.438;442.562
27.405;866;135.097;730.903
27.45;821;134.744;686.256
27.495;432;134.378;297.622
27.54;364;133.999;230.001
27.585;472;133.609;338.391
27.63;396;133.207;262.793
27.675;417;132.794;284.206
27.72;419;132.371;286.629
27.765;344;131.937;212.063
27.81;266;131.494;134.506
27.855;185;131.042;53.9577
27.9;171;130.582;40.418
27.945;162;130.114;31.8861
27.99;143;129.638;13.3615
28.035;169;129.156;39.8436
28.08;169;128.668;40.3318
28.125;165;128.174;36.8256
28.17;149;127.676;21.3243
28.215;159;127.173;31.8274
28.26;154;126.666;27.3343
28.305;196;126.156;69.8444
28.35;171;125.643;45.3572
28.395;199;125.128;73.872
28.44;208;124.612;83.3882
28.485;208;124.095;83.9053
28.53;169;123.577;45.4226
28.575;169;123.061;45.9395
28.62;163;122.545;40.4554
28.665;196;122.03;73.9696
28.71;207;121.518;85.4816
28.755;183;121.009;61.9906
28.8;143;120.504;22.4961
28.845;152;120.003;31.9975
28.89;138;119.506;18.494
28.935;138;119.015;18.985
28.98;174;118.53;55.4701
29.025;213;118.051;94.9486
29.07;203;117.58;85.4201
29.115;134;117.116;16.884
29.16;148;116.66;31.3399
29.205;133;116.213;16.7871
29.25;143;115.775;27.2252
29.295;144;115.346;28.6536
29.34;141;114.928;26.0718
29.385;157;114.521;42.4792
29.43;139;114.125;24.8754
29.475;119;113.74;5.25972
29.52;113;113.368;-0.368331
29.565;138;113.009;24.9908
29.61;126;112.663;13.3369
29.655;128;112.33;15.6699
29.7;116;112.01;3.98974
29.745;102;111.704;-9.70382
29.79;112;111.411;0.589211
29.835;106;111.131;-5.13107
29.88;114;110.865;3.1355
29.925;132;110.611;21.3892
29.97;134;110.37;23.6303
30.015;129;110.141;18.8591
30.06;133;109.924;23.0759
30.105;136;109.719;26.281
30.15;124;109.525;14.4748
30.195;133;109.343;23.6575
30.24;120;109.171;10.8293
30.285;154;109.009;44.9908
30.33;171;108.858;62.142
30.375;213;108.717;104.283
30.42;245;108.585;136.415
30.465;226;108.462;117.538
30.51;150;108.348;41.6516
30.555;165;108.244;56.7565
30.6;168;108.147;59.853
30.645;157;108.059;48.9413
30.69;142;107.978;34.0217
30.735;141;107.906;33.0944
30.78;117;107.84;9.15974
30.825;116;107.782;8.21789
30.87;126;107.731;18.2691
30.915;131;107.686;23.3137
30.96;125;107.648;17.3518
31.005;185;107.616;77.3838
31.05;227;107.59;119.41
31.095;235;107.57;127.43
31.14;237;107.555;129.445
31.185;206;107.546;98.4543
31.23;169;107.541;61.4587
31.275;157;107.542;49.4582
31.32;147;107.547;39.453
31.365;126;107.557;18.4433
31.41;182;107.571;74.4293
31.455;180;107.589;72.4111
31.5;201;107.611;93.3889
31.545;162;107.637;54.3629
31.59;135;107.667;27.3332
31.635;143;107.7;35.2999
31.68;149;107.737;41.2634
31.725;165;107.776;57.2236
31.77;167;107.819;59.1807
31.815;173;107.865;65.1349
31.86;190;107.914;82.0864
31.905;194;107.965;86.0351
31.95;241;108.019;132.981
31.995;216;108.075;107.925
32.04;186;108.133;77.8666
32.085;167;108.194;58.8058
32.13;148;108.257;39.7429
32.175;138;108.322;29.678
32.22;152;108.389;43.611
32.265;161;108.458;52.5422
32.31;191;108.528;82.4716
32.355;204;108.601;95.3992
32.4;169;108.675;60.3251
32.445;167;108.751;58.2494
32.49;129;108.828;20.1722
32.535;132;108.907;23.0934
32.58;134;108.987;25.0131
32.625;158;109.069;48.9313
32.67;166;109.152;56.8482
32.715;180;109.236;70.7637
32.76;134;109.322;24.6778
32.805;140;109.409;30.5906
32.85;112;109.498;2.50218
32.895;116;109.588;6.41244
32.94;146;109.679;36.3215
32.985;151;109.771;41.2293
33.03;149;109.864;39.1358
33.075;152;109.959;42.0412
33.12;182;110.055;71.9454
33.165;241;110.152;130.848
33.21;294;110.25;183.75
33.255;249;110.349;138.651
33.3;190;110.449;79.5506
33.345;178;110.551;67.4488
33.39;165;110.654;54.3459
33.435;138;110.758;27.2416
33.48;164;110.864;53.1359
33.525;167;110.971;56.0288
33.57;192;111.08;80.9203
33.615;174;111.19;62.8102
33.66;199;111.301;87.6985
33.705;184;111.415;72.5852
33.75;166;111.53;54.4701
33.795;142;111.647;30.3531
33.84;128;111.766;16.2342
33.885;116;111.887;4.11332
33.93;120;112.01;7.99028
33.975;141;112.135;28.865
34.02;137;112.263;24.7375
34.065;152;112.393;39.6075
34.11;155;112.525;42.475
34.155;165;112.66;52.3398
34.2;154;112.798;41.202
34.245;152;112.939;39.0613
34.29;154;113.082;40.9176
34.335;186;113.229;72.7709
34.38;209;113.379;95.621
34.425;206;113.532;92.4678
34.47;213;113.689;99.3112
34.515;157;113.849;43.151
34.56;218;114.013;103.987
34.605;242;114.181;127.819
34.65;253;114.353;138.647
34.695;194;114.529;79.4713
34.74;162;114.709;47.2909
34.785;130;114.894;15.1059
34.83;128;115.084;12.9161
34.875;117;115.279;1.72141
34.92;111;115.478;-4.47839
34.965;130;115.683;14.3165
35.01;122;115.894;6.10617
35.055;107;116.11;-9.10955
35.1;160;116.331;43.6694
35.145;138;116.556;21.4435
35.19;148;116.787;31.2131
35.235;181;117.022;63.9784
35.28;186;117.26;68.7401
35.325;191;117.502;73.4984
35.37;233;117.746;115.254
35.415;187;117.994;69.0063
35.46;162;118.243;43.7567
35.505;172;118.495;53.5052
35.55;228;118.748;109.252
35.595;244;119.002;124.998
35.64;221;119.257;101.743
35.685;179;119.513;59.4872
35.73;172;119.769;52.2314
35.775;137;120.024;16.9757
35.82;142;120.28;21.7205
35.865;152;120.534;31.4659
35.91;181;120.788;60.2125
35.955;207;121.04;85.9604
36;179;121.29;57.71
36.045;195;121.539;73.4615
36.09;207;121.785;85.2153
36.135;216;122.028;93.9716
36.18;198;122.269;75.7308
36.225;226;122.507;103.493
36.27;226;122.741;103.259
36.315;307;122.972;184.028
36.36;358;123.199;234.801
36.405;434;123.422;310.578
36.45;356;123.641;232.359
36.495;310;123.855;186.145
36.54;250;124.064;125.936
36.585;224;124.269;99.7314
36.63;216;124.468;91.5319
36.675;181;124.663;56.3374
36.72;173;124.852;48.1481
36.765;165;125.036;39.9643
36.81;148;125.214;22.7859
36.855;163;125.387;37.6131
36.9;152;125.554;26.4461
36.945;158;125.715;32.2848
36.99;187;125.87;61.1296
37.035;182;126.02;55.9804
37.08;171;126.163;44.8373
37.125;144;126.299;17.7006
37.17;150;126.43;23.5701
37.215;193;126.554;66.4462
37.26;197;126.671;70.3288
37.305;246;126.782;119.218
37.35;252;126.886;125.114
37.395;211;126.983;84.0166
37.44;174;127.074;46.9262
37.485;163;127.157;35.8427
37.53;177;127.234;49.7661
37.575;186;127.303;58.6965
37.62;162;127.366;34.634
37.665;154;127.421;26.5786
37.71;161;127.47;33.5302
37.755;162;127.511;34.489
37.8;177;127.545;49.455
37.845;182;127.572;54.4282
37.89;215;127.591;87.4087
37.935;230;127.604;102.396
37.98;208;127.609;80.3913
38.025;171;127.607;43.3935
38.07;192;127.597;64.403
38.115;199;127.58;71.4197
38.16;222;127.556;94.4436
38.205;246;127.525;118.475
38.25;209;127.487;81.5132
38.295;161;127.441;33.5587
38.34;163;127.389;35.6113
38.385;176;127.329;48.671
38.43;177;127.262;49.7378
38.475;167;127.189;39.8114
38.52;169;127.108;41.892
38.565;178;127.021;50.9794
38.61;172;126.926;45.0736
38.655;163;126.825;36.1745
38.7;156;126.718;29.2821
38.745;164;126.604;37.3961
38.79;160;126.483;33.5167
38.835;198;126.356;71.6437
38.88;216;126.223;89.7769
38.925;190;126.084;63.9164
38.97;175;125.938;49.062
39.015;181;125.786;55.2136
39.06;152;125.629;26.3712
39.105;178;125.465;52.5345
39.15;146;125.296;20.7035
39.195;130;125.122;4.87807
39.24;138;124.942;13.0581
39.285;142;124.757;17.2434
39.33;153;124.566;28.4339
39.375;149;124.371;24.6294
39.42;135;124.17;10.8299
39.465;127;123.965;3.03524
39.51;144;123.755;20.2452
39.555;154;123.54;30.4597
39.6;178;123.321;54.6787
39.645;189;123.098;65.9019
39.69;181;122.871;58.1292
39.735;146;122.639;23.3605
39.78;140;122.404;17.5957
39.825;156;122.165;33.8345
39.87;166;121.923;44.0769
39.915;172;121.677;50.3226
39.96;168;121.428;46.5716
40.005;144;121.176;22.8235
40.05;145;120.922;24.0784
40.095;174;120.664;53.3359
40.14;183;120.404;62.596
40.185;155;120.142;34.8584
40.23;141;119.877;21.1229
40.275;126;119.611;6.38947
40.32;138;119.342;18.6578
40.365;131;119.072;11.9277
40.41;156;118.801;37.199
40.455;187;118.528;68.4716
40.5;177;118.255;58.7451
40.545;167;117.98;49.0195
40.59;148;117.705;30.2945
40.635;188;117.43;70.5699
40.68;208;117.154;90.8456
40.725;207;116.879;90.1212
40.77;183;116.603;66.3965
40.815;169;116.329;52.6714
40.86;168;116.054;51.9456
40.905;170;115.781;54.2189
40.95;148;115.509;32.4909
40.995;137;115.238;21.7615
41.04;128;114.97;13.0305
41.085;128;114.703;13.2975
41.13;118;114.438;3.56245
41.175;134;114.175;19.8254
41.22;114;113.913;0.0865388
41.265;129;113.654;15.3459
41.31;159;113.396;45.6038
41.355;152;113.14;38.8602
41.4;174;112.885;61.1154
41.445;194;112.63;81.3695
41.49;195;112.377;82.6227
41.535;207;112.125;94.875
41.58;169;111.873;57.1267
41.625;152;111.622;40.3779
41.67;148;111.371;36.6286
41.715;144;111.121;32.879
41.76;159;110.871;48.1293
41.805;134;110.621;23.3795
41.85;130;110.37;19.6297
41.895;158;110.12;47.88
41.94;159;109.869;49.1306
41.985;176;109.618;66.3815
42.03;154;109.367;44.6329
42.075;155;109.115;45.8848
42.12;153;108.863;44.1373
42.165;150;108.61;41.3905
42.21;131;108.356;22.6445
42.255;168;108.101;59.8993
42.3;203;107.845;95.155
42.345;168;107.588;60.4118
42.39;176;107.33;68.6696
42.435;146;107.072;38.9285
42.48;139;106.812;32.1885
42.525;136;106.55;29.4497
42.57;135;106.288;28.7122
42.615;120;106.024;13.976
42.66;131;105.759;25.2411
42.705;144;105.492;38.5076
42.75;158;105.225;52.7755
42.795;165;104.955;60.0448
42.84;173;104.684;68.3156
42.885;178;104.412;73.5879
42.93;188;104.138;83.8617
42.975;176;103.863;72.137
43.02;126;103.586;22.4139
43.065;123;103.308;19.6923
43.11;130;103.028;26.9723
43.155;150;102.746;47.2538
43.2;168;102.463;65.5368
43.245;190;102.179;87.8214
43.29;194;101.893;92.1074
43.335;169;101.605;67.395
43.38;171;101.316;69.684
43.425;137;101.026;35.9744
43.47;140;100.734;39.2663
43.515;150;100.441;49.5594
43.56;137;100.146;36.8539
43.605;179;99.8503;79.1497
43.65;150;99.5534;50.4466
43.695;162;99.2553;62.7447
43.74;140;98.9561;41.0439
43.785;160;98.6559;61.3441
43.83;134;98.3548;35.6452
43.875;116;98.0528;17.9472
43.92;124;97.7499;26.2501
43.965;137;97.4464;39.5536
44.01;121;97.1422;23.8578
44.055;152;96.8375;55.1625
44.1;156;96.5323;59.4677
44.145;131;96.2267;34.7733
44.19;124;95.9208;28.0792
44.235;108;95.6147;12.3853
44.28;123;95.3086;27.6914
44.325;127;95.0024;31.9976
44.37;148;94.6964;53.3036
44.415;128;94.3906;33.6094
44.46;150;94.0851;55.9149
44.505;170;93.78;76.22
44.55;159;93.4755;65.5245
44.595;154;93.1717;60.8283
44.64;154;92.8687;61.1313
44.685;122;92.5666;29.4334
44.73;114;92.2656;21.7344
44.775;123;91.9658;31.0342
44.82;99;91.6674;7.33259
44.865;104;91.3705;12.6295
44.91;116;91.0752;24.9248
44.955;109;90.7817;18.2183
45;114;90.4901;23.5099
45.045;119;90.2006;28.7994
45.09;117;89.9134;27.0866
45.135;98;89.6285;8.37146
45.18;99;89.3462;9.65377
45.225;111;89.0666;21.9334
45.27;114;88.7896;25.2104
45.315;115;88.5154;26.4846
45.36;124;88.244;35.756
45.405;123;87.9755;35.0245
45.45;133;87.71;45.29
45.495;143;87.4475;55.5525
45.54;151;87.1881;63.8119
45.585;117;86.9319;30.0681
45.63;112;86.679;25.321
45.675;108;86.4295;21.5705
45.72;112;86.1834;25.8166
45.765;97;85.9409;11.0591
45.81;88;85.7021;2.29794
45.855;102;85.4669;16.5331
45.9;94;85.2357;8.76434
45.945;105;85.0083;19.9917
45.99;122;84.7849;37.2151
46.035;109;84.5655;24.4345
46.08;113;84.35;28.65
46.125;101;84.1384;16.8616
46.17;107;83.9307;23.0693
46.215;106;83.7269;22.2731
46.26;93;83.527;9.47299
46.305;96;83.331;12.669
46.35;106;83.1389;22.8611
46.395;99;82.9507;16.0493
46.44;92;82.7664;9.23361
46.485;107;82.586;24.414
46.53;96;82.4094;13.5906
46.575;105;82.2368;22.7632
46.62;82;82.068;-0.0680117
46.665;91;81.9032;9.09684
46.71;89;81.7422;7.25782
46.755;96;81.5851;14.4149
46.8;104;81.4318;22.5682
46.845;106;81.2822;24.7178
46.89;102;81.1364;20.8636
46.935;86;80.9943;5.00572
46.98;103;80.8558;22.1442
47.025;91;80.7209;10.2791
47.07;102;80.5896;21.4104
47.115;104;80.4619;23.5381
47.16;118;80.3376;37.6624
47.205;106;80.2169;25.7831
47.25;113;80.0995;32.9005
47.295;132;79.9856;52.0144
47.34;113;79.8751;33.1249
47.385;113;79.768;33.232
47.43;130;79.6642;50.3358
47.475;135;79.5638;55.4362
47.52;106;79.4667;26.5333
47.565;85;79.373;5.62698
47.61;104;79.2826;24.7174
47.655;90;79.1956;10.8044
47.7;98;79.1118;18.8882
47.745;115;79.0314;35.9686
47.79;92;78.9544;13.0456
47.835;99;78.8806;20.1194
47.88;91;78.8103;12.1897
47.925;111;78.7433;32.2567
47.97;117;78.6796;38.3204
48.015;105;78.6194;26.3806
48.06;94;78.5625;15.4375
48.105;88;78.5091;9.49094
48.15;115;78.459;36.541
48.195;109;78.4125;30.5875
48.24;94;78.3694;15.6306
48.285;104;78.3298;25.6702
48.33;106;78.2937;27.7063
48.375;102;78.2612;23.7388
48.42;93;78.2322;14.7678
48.465;98;78.2069;19.7931
48.51;86;78.1853;7.81475
48.555;90;78.1673;11.8327
48.6;95;78.153;16.847
48.645;96;78.1423;17.8577
48.69;93;78.1353;14.8647
48.735;85;78.1317;6.86827
48.78;100;78.1316;21.8684
48.825;84;78.1348;5.8652
48.87;103;78.1413;24.8587
48.915;94;78.1509;15.8491
48.96;96;78.1637;17.8363
49.005;115;78.1795;36.8205
49.05;112;78.1983;33.8017
49.095;89;78.22;10.78
49.14;96;78.2445;17.7555
49.185;114;78.2718;35.7282
49.23;120;78.3018;41.6982
49.275;120;78.3344;41.6656
49.32;100;78.3696;21.6304
49.365;106;78.4073;27.5927
49.41;90;78.4474;11.5526
49.455;101;78.49;22.51
49.5;118;78.5349;39.4651
49.545;102;78.5822;23.4178
49.59;104;78.6317;25.3683
49.635;103;78.6835;24.3165
49.68;108;78.7374;29.2626
49.725;106;78.7935;27.2065
49.77;88;78.8516;9.14836
49.815;103;78.9119;24.0881
49.86;89;78.9742;10.0258
49.905;90;79.0385;10.9615
49.95;89;79.1047;9.89533
49.995;107;79.1727;27.8273
50.04;114;79.2424;34.7576
50.085;126;79.3137;46.6863
50.13;111;79.3864;31.6136
50.175;118;79.4606;38.5394
50.22;108;79.536;28.464
50.265;131;79.6125;51.3875
50.31;121;79.6902;41.3098
50.355;100;79.7689;20.2311
50.4;127;79.8484;47.1516
50.445;107;79.9288;27.0712
50.49;102;80.0099;21.9901
50.535;92;80.0916;11.9084
50.58;95;80.1739;14.8261
50.625;89;80.2568;8.74323
50.67;86;80.34;5.66
50.715;93;80.4236;12.5764
50.76;86;80.5073;5.49267
50.805;96;80.5912;15.4088
50.85;111;80.675;30.325
50.895;104;80.7588;23.2412
50.94;97;80.8423;16.1577
50.985;109;80.9255;28.0745
51.03;98;81.0083;16.9917
51.075;107;81.0905;25.9095
51.12;113;81.1721;31.8279
51.165;127;81.253;45.747
51.21;108;81.3331;26.6669
51.255;107;81.4123;25.5877
51.3;105;81.4905;23.5095
51.345;119;81.5676;37.4324
51.39;112;81.6435;30.3565
51.435;102;81.7183;20.2817
51.48;95;81.7917;13.2083
51.525;82;81.8637;0.136315
51.57;108;81.9342;26.0658
51.615;109;82.0032;26.9968
51.66;112;82.0706;29.9294
51.705;122;82.1364;39.8636
51.75;123;82.2003;40.7997
51.795;125;82.2625;42.7375
51.84;141;82.3228;58.6772
51.885;134;82.3811;51.6189
51.93;122;82.4375;39.5625
51.975;118;82.4918;35.5082
52.02;134;82.5441;51.4559
52.065;130;82.5942;47.4058
52.11;123;82.6422;40.3578
52.155;125;82.688;42.312
52.2;104;82.7315;21.2685
52.245;94;82.7728;11.2272
52.29;113;82.8118;30.1882
52.335;115;82.8484;32.1516
52.38;115;82.8828;32.1172
52.425;134;82.9147;51.0853
52.47;129;82.9443;46.0557
52.515;113;82.9715;30.0285
52.56;126;82.9962;43.0038
52.605;101;83.0186;17.9814
52.65;105;83.0385;21.9615
52.695;114;83.056;30.944
52.74;121;83.071;37.929
52.785;113;83.0837;29.9163
52.83;101;83.0939;17.9061
52.875;96;83.1017;12.8983
52.92;85;83.107;1.89295
52.965;119;83.11;35.89
53.01;115;83.1106;31.8894
53.055;130;83.1088;46.8912
53.1;108;83.1047;24.8953
53.145;90;83.0982;6.90177
53.19;100;83.0894;16.9106
53.235;112;83.0783;28.9217
53.28;112;83.0649;28.9351
53.325;109;83.0493;25.9507
53.37;104;83.0314;20.9686
53.415;101;83.0114;17.9886
53.46;105;82.9891;22.0109
53.505;102;82.9647;19.0353
53.55;118;82.9382;35.0618
53.595;100;82.9097;17.0903
53.64;102;82.8791;19.1209
53.685;111;82.8465;28.1535
53.73;119;82.812;36.188
53.775;111;82.7756;28.2244
53.82;112;82.7373;29.2627
53.865;117;82.6972;34.3028
53.91;117;82.6554;34.3446
53.955;120;82.6119;37.3881
54;110;82.5668;27.4332
54.045;125;82.5201;42.4799
54.09;111;82.4719;28.5281
54.135;128;82.4223;45.5777
54.18;99;82.3713;16.6287
54.225;113;82.319;30.681
54.27;95;82.2655;12.7345
54.315;118;82.211;35.789
54.36;97;82.1553;14.8447
54.405;102;82.0987;19.9013
54.45;95;82.0412;12.9588
54.495;91;81.9828;9.01715
54.54;90;81.9236;8.07637
54.585;93;81.8636;11.1364
54.63;100;81.8027;18.1973
54.675;109;81.7411;27.2589
54.72;94;81.6786;12.3214
54.765;110;81.6153;28.3847
54.81;111;81.5513;29.4487
54.855;87;81.4864;5.51358
54.9;99;81.4208;17.5792
54.945;94;81.3545;12.6455
54.99;106;81.2875;24.7125
55.035;102;81.2197;20.7803
55.08;91;81.1513;9.84872
55.125;87;81.0822;5.91781
55.17;88;81.0125;6.98753
55.215;96;80.9421;15.0579
55.26;99;80.871;18.129
55.305;90;80.7992;9.20077
55.35;86;80.7266;5.27338
55.395;111;80.6531;30.3469
55.44;86;80.5787;5.42126
55.485;99;80.5034;18.4966
55.53;111;80.427;30.573
55.575;90;80.3496;9.65045
55.62;104;80.271;23.729
55.665;119;80.1913;38.8087
55.71;106;80.1103;25.8897
55.755;118;80.0282;37.9718
55.8;104;79.9447;24.0553
55.845;122;79.8599;42.1401
55.89;118;79.7738;38.2262
55.935;109;79.6862;29.3138
55.98;121;79.5973;41.4027
56.025;117;79.5069;37.4931
56.07;105;79.415;25.585
56.115;109;79.3217;29.6783
56.16;92;79.2268;12.7732
56.205;91;79.1304;11.8696
56.25;94;79.0325;14.9675
56.295;104;78.933;25.067
56.34;89;78.832;10.168
56.385;89;78.7294;10.2706
56.43;92;78.6252;13.3748
56.475;85;78.5195;6.48053
56.52;107;78.4121;28.5879
56.565;112;78.3031;33.6969
56.61;92;78.1925;13.8075
56.655;103;78.0803;24.9197
56.7;103;77.9664;25.0336
56.745;110;77.8509;32.1491
56.79;109;77.7338;31.2662
56.835;103;77.6151;25.3849
56.88;80;77.4948;2.50523
56.925;91;77.3728;13.6272
56.97;95;77.2493;17.7507
57.015;84;77.1241;6.8759
57.06;107;76.9974;30.0026
57.105;102;76.869;25.131
57.15;105;76.7391;28.2609
57.195;113;76.6077;36.3923
57.24;109;76.4747;32.5253
57.285;102;76.3403;25.6597
57.33;98;76.2043;21.7957
57.375;104;76.0668;27.9332
57.42;110;75.928;34.072
57.465;126;75.7876;50.2124
57.51;130;75.6459;54.3541
57.555;107;75.5029;31.4971
57.6;113;75.3585;37.6415
57.645;105;75.2129;29.7871
57.69;96;75.066;20.934
57.735;106;74.9179;31.0821
57.78;94;74.7687;19.2313
57.825;98;74.6183;23.3817
57.87;78;74.4669;3.53306
57.915;88;74.3146;13.6854
57.96;85;74.1612;10.8388
58.005;91;74.0068;16.9932
58.05;88;73.8515;14.1485
58.095;83;73.6952;9.30484
58.14;106;73.5378;32.4622
58.185;83;73.3794;9.62057
58.23;90;73.22;16.78
58.275;113;73.0596;39.9404
58.32;105;72.8982;32.1018
58.365;95;72.7357;22.2643
58.41;104;72.5722;31.4278
58.455;119;72.4077;46.5923
58.5;93;72.2421;20.7579
58.545;91;72.0756;18.9244
58.59;90;71.9081;18.0919
58.635;88;71.7397;16.2603
58.68;87;71.5703;15.4297
58.725;94;71.3999;22.6001
58.77;94;71.2287;22.7713
58.815;82;71.0566;10.9434
58.86;99;70.8836;28.1164
58.905;85;70.7097;14.2903
58.95;96;70.5351;25.4649
58.995;97;70.3596;26.6404
59.04;102;70.1834;31.8166
59.085;107;70.0065;36.9935
59.13;87;69.8289;17.1711
59.175;88;69.6506;18.3494
59.22;90;69.4717;20.5283
59.265;115;69.2923;45.7077
59.31;88;69.1123;18.8877
59.355;98;68.9318;29.0682
59.4;91;68.7509;22.2491
59.445;99;68.5697;30.4303
59.49;105;68.3881;36.6119
59.535;99;68.2062;30.7938
59.58;109;68.0241;40.9759
59.625;87;67.8418;19.1582
59.67;78;67.6594;10.3406
59.715;81;67.477;13.523
59.76;77;67.2947;9.70533
59.805;76;67.1124;8.8876
59.85;86;66.9303;19.0697
59.895;63;66.7484;-3.74843
59.94;91;66.5669;24.4331
59.985;79;66.3856;12.6144
60.03;80;66.2045;13.7955
60.075;75;66.0237;8.97629
60.12;80;65.8431;14.1569
60.165;87;65.6626;21.3374
60.21;79;65.4823;13.5177
60.255;92;65.3022;26.6978
60.3;89;65.1221;23.8779
60.345;89;64.9421;24.0579
60.39;85;64.7622;20.2378
60.435;85;64.5823;20.4177
60.48;93;64.4025;28.5975
60.525;90;64.2227;25.7773
60.57;95;64.043;30.957
60.615;95;63.8632;31.1368
60.66;78;63.6834;14.3166
60.705;69;63.5037;5.49629
60.75;94;63.324;30.676
60.765;82;63.264;18.736