File: XRD/Test_XRD/02_Sample 2_XRD001/normal/02_Sample 2_XRD001_basecorr_normal.csv
4.5;162;142.86;19.1403;0.028481;0.003464
4.56;159;143.544;15.4564;0.0279536;0.00279729
4.62;144;144.227;-0.227487;0.0253165;-4.11703e-05
4.68;159;144.911;14.0886;0.0279536;0.00254974
4.74;156;145.595;10.4048;0.0274262;0.00188305
4.8;160;146.279;13.7213;0.0281294;0.00248326
4.86;180;146.962;33.0382;0.0316456;0.00597922
4.92;166;147.644;18.3561;0.0291842;0.00332207
4.98;155;148.325;6.67534;0.0272504;0.0012081
5.04;161;149.004;11.9963;0.0283052;0.00217107
5.1;173;149.681;23.3193;0.0304149;0.0042203
5.16;168;150.355;17.6449;0.0295359;0.00319336
5.22;171;151.027;19.9734;0.0300633;0.00361477
5.28;166;151.695;14.3052;0.0291842;0.00258894
5.34;162;152.359;9.64077;0.028481;0.00174477
5.4;163;153.019;9.98066;0.0286568;0.00180629
5.46;168;153.674;14.326;0.0295359;0.0025927
5.52;150;154.322;-4.3218;0.0263713;-0.000782153
5.58;179;154.961;24.0386;0.0314698;0.00435048
5.64;177;155.591;21.4089;0.0311181;0.00387457
5.7;169;156.209;12.7908;0.0297117;0.00231486
5.76;167;156.814;10.1857;0.0293601;0.0018434
5.82;173;157.404;15.5956;0.0304149;0.00282247
5.88;161;157.978;3.02204;0.0283052;0.000546925
5.94;168;158.533;9.46672;0.0295359;0.00171328
6;154;159.069;-5.06865;0.0270745;-0.000917317
6.06;166;159.582;6.41766;0.0291842;0.00116146
6.12;196;160.072;35.9276;0.0344585;0.00650213
6.18;192;160.537;31.4631;0.0337553;0.00569416
6.24;217;160.974;56.0263;0.0381505;0.0101396
6.3;186;161.381;24.6191;0.0327004;0.00445553
6.36;194;161.757;32.2434;0.0341069;0.00583537
6.42;221;162.099;58.9012;0.0388537;0.0106599
6.48;234;162.405;71.5945;0.0411392;0.0129571
6.54;234;162.675;71.3253;0.0411392;0.0129084
6.6;232;162.905;69.0953;0.0407876;0.0125048
6.66;267;163.093;103.907;0.0469409;0.0188049
6.72;274;163.239;110.761;0.0481716;0.0200454
6.78;329;163.34;165.66;0.0578411;0.029981
6.84;454;163.393;290.607;0.0798172;0.0525936
6.9;566;163.399;402.601;0.0995077;0.0728623
6.96;743;163.354;579.646;0.130626;0.104904
7.02;1109;163.257;945.743;0.194972;0.171159
7.08;1583;163.106;1419.89;0.278305;0.256971
7.14;2587;162.901;2424.1;0.454817;0.43871
7.2;4438;162.641;4275.36;0.780239;0.773749
7.26;3468;162.325;3305.67;0.609705;0.598257
7.32;608;161.955;446.045;0.106892;0.0807247
7.38;433;161.531;271.469;0.0761252;0.0491301
7.44;411;161.057;249.943;0.0722574;0.0452345
7.5;466;160.533;305.467;0.0819269;0.0552831
7.56;609;159.962;449.038;0.107068;0.0812664
7.62;889;159.346;729.654;0.156294;0.132052
7.68;1235;158.687;1076.31;0.217124;0.19479
7.74;2031;157.987;1873.01;0.357068;0.338976
7.8;3671;157.25;3513.75;0.645394;0.635914
7.86;725;156.478;568.522;0.127461;0.10289
7.92;332;155.676;176.324;0.0583685;0.0319109
7.98;247;154.847;92.1528;0.0434248;0.0166777
8.04;214;153.996;60.004;0.0376231;0.0108595
8.1;187;153.127;33.8733;0.0328762;0.00613036
8.16;164;152.243;11.7565;0.0288326;0.00212768
8.22;168;151.351;16.6493;0.0295359;0.00301316
8.28;161;150.453;10.5473;0.0283052;0.00190884
8.34;164;149.553;14.4465;0.0288326;0.00261452
8.4;167;148.657;18.3426;0.0293601;0.00331963
8.46;166;147.769;18.2314;0.0291842;0.0032995
8.52;141;146.891;-5.89128;0.024789;-0.0010662
8.58;154;146.03;7.97038;0.0270745;0.00144247
8.64;154;145.187;8.81324;0.0270745;0.00159501
8.7;127;144.365;-17.3652;0.0223277;-0.00314273
8.76;153;143.567;9.43291;0.0268987;0.00170716
8.82;154;142.794;11.2062;0.0270745;0.00202808
8.88;144;142.047;1.9534;0.0253165;0.000353524
8.94;173;141.327;31.6734;0.0304149;0.00573221
9;146;140.635;5.3652;0.0256681;0.000970988
9.06;131;139.972;-8.97182;0.0230309;-0.00162371
9.12;172;139.338;32.6617;0.0302391;0.00591107
9.18;152;138.735;13.2654;0.0267229;0.00240075
9.24;135;138.161;-3.16082;0.0237342;-0.000572041
9.3;157;137.617;19.3831;0.027602;0.00350793
9.36;138;137.102;0.897713;0.0242616;0.000162467
9.42;142;136.616;5.38362;0.0249648;0.000974321
9.48;151;136.159;14.8414;0.0265471;0.00268599
9.54;147;135.728;11.2718;0.0258439;0.00203996
9.6;135;135.325;-0.324677;0.0237342;-5.87596e-05
9.66;134;134.947;-0.947409;0.0235584;-0.000171461
9.72;155;134.596;20.4042;0.0272504;0.00369274
9.78;145;134.269;10.731;0.0254923;0.00194208
9.84;167;133.967;33.0334;0.0293601;0.00597835
9.9;185;133.688;51.3123;0.0325246;0.00928643
9.96;248;133.432;114.568;0.0436006;0.0207344
10.02;283;133.198;149.802;0.0497539;0.027111
10.08;427;132.986;294.014;0.0750703;0.0532103
10.14;361;132.795;228.205;0.0634669;0.0413002
10.2;212;132.625;79.3751;0.0372714;0.0143652
10.26;225;132.475;92.5253;0.039557;0.0167451
10.32;248;132.344;115.656;0.0436006;0.0209313
10.38;281;132.233;148.767;0.0494023;0.0269237
10.44;210;132.141;77.8595;0.0369198;0.0140909
10.5;200;132.067;67.9333;0.0351617;0.0122945
10.56;202;132.011;69.9889;0.0355134;0.0126665
10.62;214;131.973;82.0265;0.0376231;0.0148451
10.68;287;131.953;155.047;0.0504571;0.0280601
10.74;278;131.951;146.049;0.0488748;0.0264318
10.8;329;131.965;197.035;0.0578411;0.0356591
10.86;429;131.997;297.003;0.0754219;0.0537513
10.92;218;132.045;85.9548;0.0383263;0.015556
10.98;215;132.11;82.8898;0.0377989;0.0150013
11.04;188;132.192;55.808;0.033052;0.0101001
11.1;203;132.29;70.7096;0.0356892;0.0127969
11.16;166;132.406;33.5945;0.0291842;0.00607989
11.22;151;132.537;18.4627;0.0265471;0.00334135
11.28;178;132.686;45.3142;0.031294;0.00820091
11.34;166;132.851;33.149;0.0291842;0.00599926
11.4;159;133.033;25.967;0.0279536;0.00469948
11.46;157;133.232;23.7683;0.027602;0.00430156
11.52;151;133.447;17.5527;0.0265471;0.00317667
11.58;159;133.68;25.3202;0.0279536;0.00458243
11.64;159;133.929;25.0708;0.0279536;0.00453729
11.7;169;134.195;34.8049;0.0297117;0.00629895
11.76;156;134.477;21.5232;0.0274262;0.00389524
11.82;183;134.773;48.2266;0.032173;0.00872799
11.88;144;135.084;8.91585;0.0253165;0.00161358
11.94;157;135.408;21.5918;0.027602;0.00390766
12;150;135.745;14.2552;0.0263713;0.00257989
12.06;159;136.093;22.9069;0.0279536;0.00414566
12.12;195;136.452;58.5476;0.0342827;0.0105959
12.18;240;136.822;103.178;0.0421941;0.0186731
12.24;227;137.201;89.7993;0.0399086;0.0162518
12.3;176;137.588;38.4117;0.0309423;0.00695171
12.36;166;137.984;28.0162;0.0291842;0.00507034
12.42;175;138.387;36.6135;0.0307665;0.00662626
12.48;153;138.796;14.2042;0.0268987;0.00257066
12.54;183;139.211;43.7891;0.032173;0.00792489
12.6;216;139.631;76.3688;0.0379747;0.0138211
12.66;257;140.056;116.944;0.0451828;0.0211644
12.72;289;140.485;148.515;0.0508087;0.0268781
12.78;387;140.916;246.084;0.068038;0.0445359
12.84;612;141.351;470.649;0.107595;0.0851775
12.9;414;141.787;272.213;0.0727848;0.0492647
12.96;227;142.226;84.7743;0.0399086;0.0153423
13.02;197;142.665;54.3347;0.0346343;0.00983343
13.08;178;143.106;34.8941;0.031294;0.00631509
13.14;199;143.547;55.4527;0.0349859;0.0100358
13.2;235;143.989;91.0109;0.041315;0.016471
13.26;209;144.431;64.5689;0.036744;0.0116856
13.32;229;144.873;84.1269;0.0402602;0.0152252
13.38;289;145.315;143.685;0.0508087;0.026004
13.44;424;145.756;278.244;0.0745429;0.0503563
13.5;316;146.196;169.804;0.0555556;0.0307308
13.56;325;146.636;178.364;0.0571378;0.03228
13.62;460;147.075;312.925;0.080872;0.0566327
13.68;802;147.514;654.486;0.140999;0.118448
13.74;341;147.951;193.049;0.0599508;0.0349377
13.8;233;148.389;84.6114;0.0409634;0.0153129
13.86;229;148.826;80.1743;0.0402602;0.0145098
13.92;168;149.263;18.7371;0.0295359;0.00339101
13.98;164;149.701;14.2994;0.0288326;0.00258788
14.04;181;150.139;30.8609;0.0318214;0.00558516
14.1;194;150.579;43.4212;0.0341069;0.00785831
14.16;222;151.02;70.98;0.0390295;0.0128459
14.22;193;151.463;41.5369;0.0339311;0.0075173
14.28;200;151.908;48.0916;0.0351617;0.00870356
14.34;224;152.356;71.6437;0.0393812;0.012966
14.4;211;152.807;58.1927;0.0370956;0.0105317
14.46;205;153.262;51.7384;0.0360408;0.00936354
14.52;226;153.72;72.2801;0.0397328;0.0130812
14.58;162;154.182;7.81752;0.028481;0.00141481
14.64;153;154.65;-1.64978;0.0268987;-0.000298575
14.7;165;155.121;9.87852;0.0290084;0.0017878
14.76;158;155.597;2.40337;0.0277778;0.000434958
14.82;179;156.074;22.9258;0.0314698;0.00414908
14.88;237;156.553;80.4469;0.0416667;0.0145592
14.94;359;157.032;201.968;0.0631153;0.0365519
15;508;157.51;350.49;0.0893108;0.0634312
15.06;822;157.987;664.013;0.144515;0.120172
15.12;506;158.46;347.54;0.0889592;0.0628973
15.18;225;158.93;66.0697;0.039557;0.0119572
15.24;200;159.396;40.6041;0.0351617;0.00734848
15.3;237;159.857;77.1435;0.0416667;0.0139613
15.36;281;160.312;120.688;0.0494023;0.0218421
15.42;374;160.76;213.24;0.0657525;0.0385919
15.48;234;161.202;72.798;0.0411392;0.0131749
15.54;188;161.636;26.3636;0.033052;0.00477125
15.6;225;162.063;62.9372;0.039557;0.0113903
15.66;205;162.481;42.5194;0.0360408;0.0076951
15.72;278;162.89;115.11;0.0488748;0.0208326
15.78;437;163.289;273.711;0.0768284;0.0495359
15.84;493;163.678;329.322;0.0866737;0.0596002
15.9;478;164.057;313.943;0.0840366;0.056817
15.96;604;164.426;439.574;0.106188;0.0795536
16.02;425;164.783;260.217;0.0747187;0.0470937
16.08;214;165.13;48.8704;0.0376231;0.00884451
16.14;199;165.465;33.5351;0.0349859;0.00606914
16.2;224;165.789;58.2108;0.0393812;0.0105349
16.26;237;166.102;70.8978;0.0416667;0.012831
16.32;304;166.404;137.596;0.0534459;0.0249019
16.38;570;166.695;403.305;0.100211;0.0729897
16.44;1112;166.974;945.026;0.195499;0.17103
16.5;1189;167.243;1021.76;0.209037;0.184916
16.56;827;167.501;659.499;0.145394;0.119355
16.62;912;167.749;744.251;0.160338;0.134694
16.68;427;167.988;259.012;0.0750703;0.0468757
16.74;285;168.219;116.781;0.0501055;0.0211349
16.8;226;168.443;57.5574;0.0397328;0.0104167
16.86;212;168.66;43.3397;0.0372714;0.00784356
16.92;246;168.873;77.1268;0.0432489;0.0139583
16.98;274;169.082;104.918;0.0481716;0.0189879
17.04;391;169.289;221.711;0.0687412;0.040125
17.1;499;169.494;329.506;0.0877286;0.0596336
17.16;336;169.699;166.301;0.0590717;0.030097
17.22;207;169.905;37.0949;0.0363924;0.00671339
17.28;168;170.114;-2.11377;0.0295359;-0.000382547
17.34;183;170.326;12.6737;0.032173;0.00229367
17.4;185;170.544;14.456;0.0325246;0.00261622
17.46;160;170.768;-10.7681;0.0281294;-0.0019488
17.52;163;171;-7.99969;0.0286568;-0.00144777
17.58;189;171.238;17.7617;0.0332278;0.00321448
17.64;172;171.482;0.517693;0.0302391;9.36915e-05
17.7;192;171.729;20.2705;0.0337553;0.00366853
17.76;230;171.978;58.0222;0.040436;0.0105008
17.82;208;172.225;35.7749;0.0365682;0.00647449
17.88;186;172.469;13.5306;0.0327004;0.00244875
17.94;191;172.708;18.2915;0.0335795;0.00331038
18;234;172.94;61.0597;0.0411392;0.0110505
18.06;277;173.163;103.837;0.048699;0.0187923
18.12;343;173.374;169.626;0.0603024;0.0306987
18.18;544;173.571;370.429;0.0956399;0.0670397
18.24;904;173.754;730.246;0.158931;0.132159
18.3;895;173.918;721.082;0.157349;0.1305
18.36;1217;174.064;1042.94;0.213959;0.188749
18.42;911;174.189;736.811;0.160162;0.133347
18.48;446;174.293;271.707;0.0784107;0.0491733
18.54;327;174.373;152.627;0.0574895;0.0276222
18.6;276;174.429;101.571;0.0485232;0.0183821
18.66;305;174.461;130.539;0.0536217;0.0236248
18.72;421;174.467;246.533;0.0740155;0.0446173
18.78;717;174.446;542.554;0.126055;0.0981908
18.84;589;174.397;414.603;0.103551;0.0750344
18.9;549;174.32;374.68;0.096519;0.0678091
18.96;879;174.214;704.786;0.154536;0.127551
19.02;733;174.079;558.921;0.128868;0.101153
19.08;307;173.914;133.086;0.0539733;0.0240857
19.14;234;173.72;60.2804;0.0411392;0.0109095
19.2;194;173.495;20.505;0.0341069;0.00371097
19.26;208;173.24;34.7596;0.0365682;0.00629075
19.32;197;172.956;24.0444;0.0346343;0.00435153
19.38;221;172.64;48.3598;0.0388537;0.00875209
19.44;217;172.294;44.7059;0.0381505;0.00809082
19.5;202;171.917;30.0831;0.0355134;0.0054444
19.56;215;171.508;43.4917;0.0377989;0.00787107
19.62;233;171.068;61.9318;0.0409634;0.0112083
19.68;242;170.596;71.4039;0.0425457;0.0129226
19.74;315;170.092;144.908;0.0553797;0.0262253
19.8;535;169.556;365.444;0.0940577;0.0661377
19.86;1027;168.987;858.013;0.180556;0.155282
19.92;1280;168.385;1111.61;0.225035;0.201179
19.98;748;167.751;580.249;0.131505;0.105013
20.04;708;167.086;540.914;0.124473;0.097894
20.1;571;166.388;404.612;0.100387;0.0732261
20.16;447;165.66;281.34;0.0785865;0.0509165
20.22;334;164.902;169.098;0.0587201;0.0306031
20.28;437;164.115;272.885;0.0768284;0.0493864
20.34;518;163.3;354.7;0.0910689;0.0641932
20.4;464;162.457;301.543;0.0815752;0.0545729
20.46;394;161.588;232.412;0.0692686;0.0420616
20.52;508;160.695;347.305;0.0893108;0.0628549
20.58;593;159.777;433.223;0.104255;0.0784042
20.64;398;158.837;239.163;0.0699719;0.0432835
20.7;310;157.875;152.125;0.0545007;0.0275313
20.76;349;156.894;192.106;0.0613572;0.0347671
20.82;535;155.895;379.105;0.0940577;0.06861
20.88;605;154.879;450.121;0.106364;0.0814624
20.94;339;153.848;185.152;0.0595992;0.0335087
21;314;152.803;161.197;0.0552039;0.0291732
21.06;316;151.747;164.253;0.0555556;0.0297263
21.12;395;150.681;244.319;0.0694444;0.0442165
21.18;594;149.607;444.393;0.10443;0.0804256
21.24;636;148.528;487.472;0.111814;0.0882221
21.3;423;147.444;275.556;0.0743671;0.0498697
21.36;396;146.359;249.641;0.0696203;0.0451797
21.42;379;145.275;233.725;0.0666315;0.0422993
21.48;589;144.193;444.807;0.103551;0.0805006
21.54;606;143.117;462.883;0.10654;0.083772
21.6;364;142.048;221.952;0.0639944;0.0401686
21.66;305;140.99;164.01;0.0536217;0.0296824
21.72;286;139.944;146.056;0.0502813;0.026433
21.78;358;138.915;219.085;0.0629395;0.0396498
21.84;420;137.904;282.096;0.0738397;0.0510535
21.9;286;136.914;149.086;0.0502813;0.0269815
21.96;207;135.948;71.0521;0.0363924;0.0128589
22.02;226;135.009;90.9908;0.0397328;0.0164674
22.08;209;134.1;74.8996;0.036744;0.0135552
22.14;185;133.225;51.7754;0.0325246;0.00937025
22.2;166;132.385;33.6154;0.0291842;0.00608368
22.26;150;131.583;18.4166;0.0263713;0.00333301
22.32;150;130.824;19.1759;0.0263713;0.00347044
22.38;136;130.11;5.89044;0.02391;0.00106604
22.44;126;129.443;-3.44286;0.0221519;-0.000623084
22.5;116;128.827;-12.8269;0.0203938;-0.0023214
22.56;127;128.264;-1.26443;0.0223277;-0.000228836
22.62;114;127.757;-13.7575;0.0200422;-0.00248981
22.68;125;127.308;-2.3075;0.0219761;-0.000417609
22.74;142;126.914;15.0858;0.0249648;0.0027302
22.8;135;126.576;8.42373;0.0237342;0.00152452
22.86;147;126.292;20.7081;0.0258439;0.00374773
22.92;147;126.059;20.9409;0.0258439;0.00378986
22.98;136;125.876;10.124;0.02391;0.00183223
23.04;146;125.741;20.2594;0.0256681;0.00366652
23.1;152;125.651;26.3492;0.0267229;0.00476864
23.16;137;125.605;11.3953;0.0240858;0.00206231
23.22;147;125.6;21.3999;0.0258439;0.00387292
23.28;147;125.635;21.3649;0.0258439;0.00386659
23.34;190;125.708;64.2924;0.0334037;0.0116356
23.4;167;125.816;41.1844;0.0293601;0.0074535
23.46;146;125.957;20.0429;0.0256681;0.00362734
23.52;151;126.13;24.8699;0.0265471;0.00450092
23.58;140;126.333;13.6673;0.0246132;0.00247349
23.64;156;126.563;29.4372;0.0274262;0.00532751
23.7;160;126.818;33.1815;0.0281294;0.00600515
23.76;194;127.098;66.9022;0.0341069;0.0121079
23.82;204;127.399;76.6013;0.035865;0.0138632
23.88;207;127.719;79.2806;0.0363924;0.0143481
23.94;295;128.058;166.942;0.0518636;0.030213
24;370;128.412;241.588;0.0650492;0.0437223
24.06;322;128.781;193.219;0.0566104;0.0349686
24.12;299;129.161;169.839;0.0525668;0.0307372
24.18;255;129.552;125.448;0.0448312;0.0227034
24.24;195;129.952;65.0481;0.0342827;0.0117723
24.3;195;130.359;64.6412;0.0342827;0.0116987
24.36;232;130.771;101.229;0.0407876;0.0183203
24.42;289;131.187;157.813;0.0508087;0.0285608
24.48;390;131.605;258.395;0.0685654;0.046764
24.54;585;132.023;452.977;0.102848;0.0819791
24.6;803;132.441;670.559;0.141174;0.121357
24.66;414;132.856;281.144;0.0727848;0.0508811
24.72;292;133.268;158.732;0.0513361;0.0287272
24.78;352;133.674;218.326;0.0618847;0.0395123
24.84;399;134.075;264.925;0.0701477;0.0479458
24.9;269;134.468;134.532;0.0472925;0.0243474
24.96;315;134.854;180.146;0.0553797;0.0326026
25.02;293;135.23;157.77;0.051512;0.0285529
25.08;223;135.597;87.4031;0.0392053;0.0158181
25.14;192;135.953;56.0474;0.0337553;0.0101434
25.2;218;136.297;81.7034;0.0383263;0.0147866
25.26;205;136.628;68.372;0.0360408;0.0123739
25.32;192;136.946;55.054;0.0337553;0.0099636
25.38;168;137.25;30.7502;0.0295359;0.00556513
25.44;230;137.539;92.4613;0.040436;0.0167335
25.5;279;137.812;141.188;0.0490506;0.0255521
25.56;246;138.068;107.932;0.0432489;0.0195333
25.62;207;138.308;68.6923;0.0363924;0.0124319
25.68;204;138.529;65.4709;0.035865;0.0118488
25.74;310;138.732;171.268;0.0545007;0.0309959
25.8;443;138.915;304.085;0.0778833;0.0550329
25.86;491;139.079;351.921;0.0863221;0.0636902
25.92;287;139.222;147.778;0.0504571;0.0267447
25.98;209;139.344;69.6556;0.036744;0.0126062
26.04;199;139.445;59.5546;0.0349859;0.0107781
26.1;185;139.525;45.4753;0.0325246;0.00823006
26.16;183;139.582;43.418;0.032173;0.00785774
26.22;167;139.617;27.3832;0.0293601;0.00495579
26.28;200;139.629;60.3713;0.0351617;0.0109259
26.34;239;139.618;99.3824;0.0420183;0.0179861
26.4;206;139.583;66.417;0.0362166;0.0120201
26.46;219;139.525;79.4754;0.0385021;0.0143834
26.52;236;139.442;96.5579;0.0414909;0.0174749
26.58;330;139.335;190.665;0.0580169;0.0345063
26.64;632;139.204;492.796;0.111111;0.0891856
26.7;453;139.048;313.952;0.0796414;0.0568187
26.76;271;138.867;132.133;0.0476442;0.0239133
26.82;239;138.661;100.339;0.0420183;0.0181592
26.88;262;138.431;123.569;0.0460619;0.0223634
26.94;333;138.176;194.824;0.0585443;0.0352591
27;453;137.896;315.104;0.0796414;0.0570272
27.06;359;137.592;221.408;0.0631153;0.0400702
27.12;289;137.263;151.737;0.0508087;0.0274611
27.18;244;136.911;107.089;0.0428973;0.0193808
27.24;224;136.535;87.4649;0.0393812;0.0158293
27.3;297;136.136;160.864;0.0522152;0.029113
27.36;549;135.714;413.286;0.096519;0.074796
27.42;711;135.27;575.73;0.125;0.104195
27.48;518;134.804;383.196;0.0910689;0.0693504
27.54;373;134.316;238.684;0.0655767;0.0431967
27.6;447;133.809;313.191;0.0785865;0.056681
27.66;402;133.281;268.719;0.0706751;0.0486324
27.72;370;132.735;237.265;0.0650492;0.0429399
27.78;272;132.171;139.829;0.04782;0.025306
27.84;217;131.591;85.409;0.0381505;0.0154572
27.9;192;130.995;61.005;0.0337553;0.0110406
27.96;162;130.384;31.6156;0.028481;0.00572175
28.02;171;129.76;41.2395;0.0300633;0.00746348
28.08;189;129.124;59.8758;0.0332278;0.0108362
28.14;160;128.477;31.5231;0.0281294;0.00570502
28.2;170;127.819;42.1805;0.0298875;0.00763378
28.26;193;127.153;65.8468;0.0339311;0.0119169
28.32;177;126.479;50.5208;0.0311181;0.00914319
28.38;179;125.799;53.2013;0.0314698;0.00962831
28.44;202;125.113;76.8872;0.0355134;0.0139149
28.5;166;124.423;41.5771;0.0291842;0.00752458
28.56;162;123.73;38.27;0.028481;0.00692606
28.62;157;123.035;33.9646;0.027602;0.00614687
28.68;183;122.34;60.6596;0.032173;0.0109781
28.74;216;121.646;94.3538;0.0379747;0.017076
28.8;145;120.954;24.046;0.0254923;0.00435181
28.86;143;120.265;22.7347;0.0251406;0.0041145
28.92;133;119.581;13.4188;0.0233826;0.00242853
28.98;154;118.903;35.097;0.0270745;0.00635181
29.04;194;118.232;75.7679;0.0341069;0.0137124
29.1;145;117.57;27.4302;0.0254923;0.00496428
29.16;130;116.917;13.0826;0.0228551;0.00236767
29.22;122;116.276;5.72373;0.0214487;0.00103587
29.28;143;115.648;27.3523;0.0251406;0.00495018
29.34;133;115.033;17.9669;0.0233826;0.00325162
29.4;149;114.434;34.5661;0.0261955;0.00625574
29.46;126;113.851;12.1487;0.0221519;0.00219866
29.52;124;113.287;10.7133;0.0218003;0.00193887
29.58;149;112.742;36.2584;0.0261955;0.006562
29.64;133;112.217;20.7827;0.0233826;0.00376123
29.7;123;111.715;11.2848;0.0216245;0.00204231
29.76;117;111.237;5.76332;0.0205696;0.00104304
29.82;109;110.783;-1.78285;0.0191632;-0.000322659
29.88;134;110.355;23.6454;0.0235584;0.00427932
29.94;129;109.952;19.048;0.0226793;0.00344728
30;117;109.575;7.4251;0.0205696;0.00134379
30.06;132;109.223;22.7769;0.0232068;0.00412214
30.12;108;108.896;-0.896332;0.0189873;-0.000162217
30.18;122;108.594;13.4056;0.0214487;0.00242613
30.24;138;108.317;29.6832;0.0242616;0.00537202
30.3;138;108.063;29.9371;0.0242616;0.00541798
30.36;159;107.832;51.1681;0.0279536;0.00926034
30.42;200;107.623;92.377;0.0351617;0.0167183
30.48;186;107.436;78.5645;0.0327004;0.0142185
30.54;156;107.269;48.7313;0.0274262;0.00881932
30.6;147;107.122;39.878;0.0258439;0.00721708
30.66;157;106.995;50.0055;0.027602;0.00904993
30.72;136;106.886;29.1143;0.02391;0.00526907
30.78;112;106.795;5.20505;0.0196906;0.000942004
30.84;139;106.722;32.2785;0.0244374;0.00584172
30.9;150;106.665;43.3352;0.0263713;0.00784274
30.96;156;106.624;49.3758;0.0274262;0.00893597
31.02;191;106.599;84.4009;0.0335795;0.0152748
31.08;187;106.589;80.4112;0.0328762;0.0145527
31.14;208;106.593;101.407;0.0365682;0.0183526
31.2;178;106.61;71.3897;0.031294;0.01292
31.26;170;106.641;63.3591;0.0298875;0.0114666
31.32;139;106.684;32.3158;0.0244374;0.00584847
31.38;143;106.74;36.2605;0.0251406;0.00656238
31.44;185;106.806;78.1936;0.0325246;0.0141514
31.5;184;106.884;77.1158;0.0323488;0.0139563
31.56;161;106.973;54.0274;0.0283052;0.0097778
31.62;148;107.071;40.9289;0.0260197;0.00740726
31.68;137;107.179;29.8208;0.0240858;0.00539693
31.74;149;107.296;41.7035;0.0261955;0.00754745
31.8;167;107.422;59.5775;0.0293601;0.0107823
31.86;157;107.557;49.4432;0.027602;0.00894817
31.92;184;107.699;76.301;0.0323488;0.0138089
31.98;216;107.849;108.151;0.0379747;0.0195731
32.04;186;108.005;77.9945;0.0327004;0.0141154
32.1;165;108.169;56.8309;0.0290084;0.0102852
32.16;159;108.339;50.6609;0.0279536;0.00916854
32.22;162;108.515;53.4847;0.028481;0.00967959
32.28;176;108.697;67.3027;0.0309423;0.0121804
32.34;197;108.885;88.1151;0.0346343;0.015947
32.4;185;109.078;75.9223;0.0325246;0.0137403
32.46;157;109.276;47.7244;0.027602;0.00863711
32.52;141;109.478;31.5218;0.024789;0.00570477
32.58;149;109.685;39.3146;0.0261955;0.00711511
32.64;149;109.897;39.1031;0.0261955;0.00707683
32.7;144;110.113;33.8875;0.0253165;0.00613291
32.76;134;110.332;23.6679;0.0235584;0.00428339
32.82;119;110.555;8.44457;0.0209212;0.00152829
32.88;129;110.782;18.2177;0.0226793;0.00329701
32.94;133;111.013;21.9874;0.0233826;0.00397925
33;146;111.246;34.7539;0.0256681;0.00628972
33.06;161;111.483;49.5173;0.0283052;0.00896158
33.12;191;111.722;79.2778;0.0335795;0.0143476
33.18;250;111.964;138.036;0.0439522;0.0249815
33.24;243;112.209;130.791;0.0427215;0.0236703
33.3;184;112.457;71.5433;0.0323488;0.0129478
33.36;162;112.707;49.2934;0.028481;0.00892106
33.42;166;112.959;53.041;0.0291842;0.0095993
33.48;170;113.214;56.7862;0.0298875;0.0102771
33.54;156;113.471;42.5289;0.0274262;0.00769684
33.6;157;113.731;43.2692;0.027602;0.00783081
33.66;174;113.993;60.0071;0.0305907;0.01086
33.72;165;114.258;50.7424;0.0290084;0.0091833
33.78;131;114.525;16.4752;0.0230309;0.00298166
33.84;136;114.795;21.2054;0.02391;0.00383772
33.9;146;115.067;30.9328;0.0256681;0.00559819
33.96;136;115.342;20.6575;0.02391;0.00373858
34.02;135;115.621;19.3794;0.0237342;0.00350727
34.08;151;115.901;35.0985;0.0265471;0.00635209
34.14;163;116.185;46.8148;0.0286568;0.00847249
34.2;159;116.472;42.5285;0.0279536;0.00769675
34.26;154;116.761;37.2394;0.0270745;0.00673955
34.32;148;117.052;30.9478;0.0260197;0.00560089
34.38;175;117.346;57.6535;0.0307665;0.0104341
34.44;201;117.643;83.3567;0.0353376;0.0150858
34.5;182;117.943;64.0572;0.0319972;0.011593
34.56;198;118.245;79.7551;0.0348101;0.014434
34.62;216;118.55;97.4503;0.0379747;0.0176364
34.68;207;118.857;88.1429;0.0363924;0.015952
34.74;165;119.167;45.8326;0.0290084;0.00829472
34.8;128;119.481;8.51935;0.0225035;0.00154182
34.86;123;119.797;3.20327;0.0216245;0.000579724
34.92;123;120.115;2.88465;0.0216245;0.00052206
34.98;134;120.436;13.5639;0.0235584;0.00245477
35.04;117;120.759;-3.75865;0.0205696;-0.000680236
35.1;128;121.082;6.91755;0.0225035;0.00125193
35.16;152;121.407;30.5931;0.0267229;0.0055367
35.22;157;121.731;35.2686;0.027602;0.00638287
35.28;186;122.055;63.9448;0.0327004;0.0115727
35.34;207;122.378;84.6223;0.0363924;0.0153148
35.4;153;122.698;30.3017;0.0268987;0.00548397
35.46;146;123.016;22.9837;0.0256681;0.00415956
35.52;183;123.331;59.6687;0.032173;0.0107988
35.58;222;123.642;98.3575;0.0390295;0.0178006
35.64;191;123.949;67.0506;0.0335795;0.0121347
35.7;149;124.251;24.7486;0.0261955;0.00447897
35.76;157;124.548;32.4519;0.027602;0.00587311
35.82;141;124.839;16.1612;0.024789;0.00292483
35.88;164;125.123;38.8769;0.0288326;0.00703589
35.94;179;125.4;53.5995;0.0314698;0.00970037
36;180;125.67;54.3296;0.0316456;0.0098325
36.06;166;125.932;40.0676;0.0291842;0.00725138
36.12;210;126.186;83.814;0.0369198;0.0151685
36.18;222;126.431;95.5692;0.0390295;0.017296
36.24;198;126.666;71.3337;0.0348101;0.0129099
36.3;262;126.892;135.108;0.0460619;0.0244517
36.36;321;127.108;193.892;0.0564346;0.0350904
36.42;348;127.313;220.687;0.0611814;0.0399397
36.48;280;127.508;152.492;0.0492264;0.0275979
36.54;248;127.691;120.309;0.0436006;0.0217734
36.6;224;127.863;96.1365;0.0393812;0.0173987
36.66;187;128.024;58.9756;0.0328762;0.0106733
36.72;205;128.174;76.8261;0.0360408;0.0139039
36.78;173;128.312;44.6884;0.0304149;0.00808765
36.84;139;128.438;10.5624;0.0244374;0.00191158
36.9;152;128.552;23.4484;0.0267229;0.00424366
36.96;166;128.654;37.3464;0.0291842;0.0067589
37.02;182;128.744;53.2564;0.0319972;0.00963828
37.08;170;128.821;41.1787;0.0298875;0.00745247
37.14;140;128.887;11.1132;0.0246132;0.00201125
37.2;169;128.94;40.06;0.0297117;0.00725002
37.26;185;128.981;56.0192;0.0325246;0.0101383
37.32;210;129.009;80.9908;0.0369198;0.0146576
37.38;217;129.025;87.9749;0.0381505;0.0159216
37.44;167;129.029;37.9713;0.0293601;0.006872
37.5;187;129.02;57.9802;0.0328762;0.0104932
37.56;186;128.999;57.0013;0.0327004;0.010316
37.62;168;128.965;39.0348;0.0295359;0.00706448
37.68;165;128.919;36.0806;0.0290084;0.00652982
37.74;187;128.862;58.1385;0.0328762;0.0105218
37.8;180;128.792;51.2084;0.0316456;0.00926764
37.86;180;128.71;51.2903;0.0316456;0.00928246
37.92;202;128.616;73.3841;0.0355134;0.013281
37.98;208;128.51;79.4896;0.0365682;0.0143859
38.04;178;128.393;49.6067;0.031294;0.00897776
38.1;208;128.265;79.7352;0.0365682;0.0144304
38.16;236;128.125;107.875;0.0414909;0.0195231
38.22;207;127.974;79.0257;0.0363924;0.014302
38.28;162;127.813;34.1872;0.028481;0.00618716
38.34;152;127.641;24.3593;0.0267229;0.00440852
38.4;203;127.458;75.5417;0.0356892;0.0136714
38.46;176;127.266;48.7341;0.0309423;0.00881983
38.52;198;127.064;70.9362;0.0348101;0.0128379
38.58;183;126.852;56.1477;0.032173;0.0101615
38.64;136;126.632;9.36826;0.02391;0.00169546
38.7;145;126.402;18.5976;0.0254923;0.00336577
38.76;166;126.165;39.8354;0.0291842;0.00720936
38.82;179;125.919;53.0812;0.0314698;0.00960657
38.88;177;125.665;51.3347;0.0311181;0.0092905
38.94;189;125.404;63.5956;0.0332278;0.0115095
39;186;125.137;60.8634;0.0327004;0.011015
39.06;199;124.862;74.1377;0.0349859;0.0134174
39.12;179;124.582;54.4181;0.0314698;0.00984853
39.18;143;124.296;18.7042;0.0251406;0.00338507
39.24;140;124.004;15.9955;0.0246132;0.00289485
39.3;119;123.708;-4.70844;0.0209212;-0.000852127
39.36;147;123.408;23.592;0.0258439;0.00426966
39.42;127;123.103;3.89682;0.0223277;0.000705242
39.48;159;122.794;36.2059;0.0279536;0.0065525
39.54;158;122.481;35.5192;0.0277778;0.00642822
39.6;149;122.163;26.8367;0.0261955;0.00485688
39.66;183;121.842;61.1583;0.032173;0.0110684
39.72;150;121.516;28.484;0.0263713;0.00515499
39.78;157;121.186;35.8136;0.027602;0.0064815
39.84;160;120.853;39.147;0.0281294;0.00708478
39.9;163;120.516;42.4843;0.0286568;0.00768875
39.96;149;120.175;28.8252;0.0261955;0.00521674
40.02;147;119.83;27.1696;0.0258439;0.00491712
40.08;165;119.483;45.5174;0.0290084;0.00823769
40.14;126;119.131;6.86857;0.0221519;0.00124306
40.2;131;118.777;12.2228;0.0230309;0.00221207
40.26;163;118.42;44.5801;0.0286568;0.00806805
40.32;159;118.06;40.9402;0.0279536;0.00740931
40.38;159;117.697;41.303;0.0279536;0.00747497
40.44;165;117.332;47.6683;0.0290084;0.00862695
40.5;162;116.964;45.0359;0.028481;0.00815055
40.56;152;116.594;35.4057;0.0267229;0.00640769
40.62;162;116.223;45.7775;0.028481;0.00828475
40.68;165;115.849;49.1509;0.0290084;0.00889527
40.74;191;115.474;75.5259;0.0335795;0.0136686
40.8;146;115.098;30.9021;0.0256681;0.00559263
40.86;180;114.721;65.2793;0.0316456;0.0118142
40.92;157;114.343;42.6573;0.027602;0.00772006
40.98;134;113.964;20.0357;0.0235584;0.00362603
41.04;130;113.586;16.4142;0.0228551;0.00297063
41.1;125;113.207;11.7926;0.0219761;0.00213422
41.16;140;112.829;27.1706;0.0246132;0.0049173
41.22;110;112.452;-2.45221;0.019339;-0.000443799
41.28;132;112.076;19.924;0.0232068;0.00360582
41.34;146;111.701;34.2993;0.0256681;0.00620744
41.4;175;111.326;63.6736;0.0307665;0.0115236
41.46;198;110.953;87.0471;0.0348101;0.0157537
41.52;173;110.58;62.4198;0.0304149;0.0112967
41.58;152;110.208;41.7917;0.0267229;0.00756341
41.64;144;109.837;34.1628;0.0253165;0.00618274
41.7;142;109.467;32.533;0.0249648;0.00588779
41.76;140;109.098;30.9024;0.0246132;0.00559268
41.82;139;108.729;30.2709;0.0244374;0.00547839
41.88;155;108.362;46.6385;0.0272504;0.00844057
41.94;152;107.995;44.0051;0.0267229;0.00796398
42;150;107.629;42.3706;0.0263713;0.00766818
42.06;150;107.265;42.7351;0.0263713;0.00773414
42.12;136;106.902;29.0983;0.02391;0.00526618
42.18;141;106.54;34.4604;0.024789;0.00623659
42.24;163;106.179;56.821;0.0286568;0.0102834
42.3;162;105.82;56.1801;0.028481;0.0101674
42.36;185;105.462;79.5377;0.0325246;0.0143946
42.42;146;105.107;40.8935;0.0256681;0.00740085
42.48;137;104.753;32.2474;0.0240858;0.00583609
42.54;140;104.401;35.5992;0.0246132;0.00644269
42.6;134;104.051;29.9487;0.0235584;0.00542008
42.66;136;103.704;32.2958;0.02391;0.00584485
42.72;145;103.36;41.6405;0.0254923;0.00753604
42.78;157;103.017;53.9831;0.027602;0.0097698
42.84;183;102.676;80.3239;0.032173;0.0145369
42.9;204;102.337;101.663;0.035865;0.0183989
42.96;160;101.999;58.0012;0.0281294;0.010497
43.02;148;101.662;46.3382;0.0260197;0.00838623
43.08;137;101.326;35.6743;0.0240858;0.0064563
43.14;152;100.99;51.0099;0.0267229;0.00923171
43.2;140;100.655;39.345;0.0246132;0.00712061
43.26;164;100.32;63.6799;0.0288326;0.0115247
43.32;165;99.9852;65.0148;0.0290084;0.0117663
43.38;139;99.6502;39.3498;0.0244374;0.00712148
43.44;148;99.315;48.685;0.0260197;0.00881096
43.5;176;98.9793;77.0207;0.0309423;0.0139391
43.56;165;98.6432;66.3568;0.0290084;0.0120092
43.62;130;98.3065;31.6935;0.0228551;0.00573585
43.68;132;97.9691;34.0309;0.0232068;0.00615887
43.74;149;97.6309;51.3691;0.0261955;0.00929671
43.8;137;97.2919;39.7081;0.0240858;0.00718632
43.86;127;96.9521;30.0479;0.0223277;0.00543804
43.92;125;96.6113;28.3887;0.0219761;0.00513776
43.98;125;96.2695;28.7305;0.0219761;0.0051996
44.04;136;95.9268;40.0732;0.02391;0.00725239
44.1;137;95.5831;41.4169;0.0240858;0.00749557
44.16;133;95.2385;37.7615;0.0233826;0.00683404
44.22;122;94.8928;27.1072;0.0214487;0.00490583
44.28;121;94.5462;26.4538;0.0212729;0.00478758
44.34;143;94.1986;48.8014;0.0251406;0.00883202
44.4;122;93.8501;28.1499;0.0214487;0.00509453
44.46;162;93.5007;68.4993;0.028481;0.0123969
44.52;166;93.1505;72.8495;0.0291842;0.0131842
44.58;149;92.7995;56.2005;0.0261955;0.0101711
44.64;141;92.4477;48.5523;0.024789;0.00878693
44.7;114;92.0954;21.9046;0.0200422;0.00396427
44.76;118;91.7425;26.2575;0.0207454;0.00475205
44.82;115;91.3892;23.6108;0.020218;0.00427306
44.88;119;91.0356;27.9644;0.0209212;0.00506097
44.94;114;90.6818;23.3182;0.0200422;0.00422011
45;110;90.3279;19.6721;0.019339;0.00356024
45.06;123;89.974;33.026;0.0216245;0.005977
45.12;112;89.6204;22.3796;0.0196906;0.00405023
45.18;103;89.2671;13.7329;0.0181083;0.00248537
45.24;113;88.9142;24.0858;0.0198664;0.00435901
45.3;132;88.562;43.438;0.0232068;0.00786135
45.36;110;88.2106;21.7894;0.019339;0.00394342
45.42;127;87.8601;39.1399;0.0223277;0.00708349
45.48;128;87.5107;40.4893;0.0225035;0.0073277
45.54;133;87.1626;45.8374;0.0233826;0.00829559
45.6;115;86.816;28.184;0.020218;0.0051007
45.66;111;86.4712;24.5288;0.0195148;0.0044392
45.72;91;86.1282;4.87182;0.0159986;0.000881696
45.78;93;85.7873;7.21268;0.0163502;0.00130534
45.84;107;85.4488;21.5512;0.0188115;0.00390031
45.9;105;85.1128;19.8872;0.0184599;0.00359915
45.96;116;84.7797;31.2203;0.0203938;0.00565022
46.02;109;84.4495;24.5505;0.0191632;0.00444312
46.08;111;84.1226;26.8774;0.0195148;0.00486424
46.14;114;83.7992;30.2008;0.0200422;0.00546571
46.2;94;83.4795;10.5205;0.016526;0.00190398
46.26;119;83.1639;35.8361;0.0209212;0.00648557
46.32;90;82.8525;7.14748;0.0158228;0.00129354
46.38;90;82.5457;7.45432;0.0158228;0.00134907
46.44;97;82.2437;14.7563;0.0170534;0.00267059
46.5;101;81.9467;19.0533;0.0177567;0.00344824
46.56;106;81.6551;24.3449;0.0186357;0.00440591
46.62;78;81.3692;-3.36916;0.0137131;-0.000609746
46.68;105;81.0891;23.9109;0.0184599;0.00432737
46.74;91;80.815;10.185;0.0159986;0.00184326
46.8;79;80.547;-1.54703;0.0138889;-0.000279979
46.86;99;80.2852;18.7148;0.0174051;0.00338699
46.92;97;80.0295;16.9705;0.0170534;0.0030713
46.98;107;79.7799;27.2201;0.0188115;0.00492626
47.04;105;79.5365;25.4635;0.0184599;0.00460835
47.1;106;79.2992;26.7008;0.0186357;0.00483228
47.16;105;79.0681;25.9319;0.0184599;0.00469313
47.22;99;78.8431;20.1569;0.0174051;0.00364797
47.28;126;78.6243;47.3757;0.0221519;0.00857399
47.34;108;78.4118;29.5882;0.0189873;0.00535484
47.4;117;78.2054;38.7946;0.0205696;0.00702099
47.46;110;78.0054;31.9946;0.019339;0.00579034
47.52;96;77.8117;18.1883;0.0168776;0.00329169
47.58;98;77.6245;20.3755;0.0172293;0.00368754
47.64;103;77.4437;25.5563;0.0181083;0.00462515
47.7;111;77.2695;33.7305;0.0195148;0.00610451
47.76;107;77.1019;29.8981;0.0188115;0.00541093
47.82;85;76.941;8.05904;0.0149437;0.00145851
47.88;99;76.7869;22.2131;0.0174051;0.0040201
47.94;104;76.6397;27.3603;0.0182841;0.00495164
48;99;76.4995;22.5005;0.0174051;0.00407211
48.06;97;76.3665;20.6335;0.0170534;0.00373423
48.12;95;76.2406;18.7594;0.0167018;0.00339505
48.18;118;76.1222;41.8778;0.0207454;0.00757899
48.24;99;76.0113;22.9887;0.0174051;0.00416047
48.3;107;75.908;31.092;0.0188115;0.005627
48.36;101;75.8125;25.1875;0.0177567;0.00455841
48.42;80;75.7249;4.2751;0.0140647;0.000773702
48.48;105;75.6455;29.3545;0.0184599;0.00531255
48.54;106;75.5743;30.4257;0.0186357;0.0055064
48.6;93;75.5116;17.4884;0.0163502;0.00316503
48.66;90;75.4575;14.5425;0.0158228;0.00263188
48.72;88;75.4123;12.5877;0.0154712;0.00227811
48.78;76;75.376;0.623957;0.0133615;0.000112923
48.84;94;75.349;18.651;0.016526;0.00337544
48.9;108;75.331;32.669;0.0189873;0.0059124
48.96;94;75.3216;18.6784;0.016526;0.00338039
49.02;87;75.3206;11.6794;0.0152954;0.00211372
49.08;106;75.3276;30.6724;0.0186357;0.00555106
49.14;97;75.3422;21.6578;0.0170534;0.00391961
49.2;99;75.3641;23.6359;0.0174051;0.0042776
49.26;98;75.3929;22.6071;0.0172293;0.0040914
49.32;116;75.4284;40.5716;0.0203938;0.0073426
49.38;99;75.4702;23.5298;0.0174051;0.0042584
49.44;98;75.518;22.482;0.0172293;0.00406877
49.5;110;75.5715;34.4285;0.019339;0.00623083
49.56;85;75.6304;9.36961;0.0149437;0.0016957
49.62;102;75.6944;26.3056;0.0179325;0.00476075
49.68;98;75.7633;22.2367;0.0172293;0.00402437
49.74;103;75.8367;27.1633;0.0181083;0.00491598
49.8;94;75.9144;18.0856;0.016526;0.0032731
49.86;106;75.9962;30.0038;0.0186357;0.00543005
49.92;115;76.0817;38.9183;0.020218;0.00704339
49.98;116;76.1707;39.8293;0.0203938;0.00720825
50.04;102;76.263;25.737;0.0179325;0.00465784
50.1;117;76.3584;40.6416;0.0205696;0.00735527
50.16;119;76.4565;42.5435;0.0209212;0.00769946
50.22;112;76.5573;35.4427;0.0196906;0.00641438
50.28;120;76.6604;43.3396;0.021097;0.00784355
50.34;115;76.7656;38.2344;0.020218;0.00691961
50.4;98;76.8729;21.1271;0.0172293;0.00382356
50.46;90;76.982;13.018;0.0158228;0.00235599
50.52;81;77.0926;3.90736;0.0142405;0.000707149
50.58;99;77.2048;21.7952;0.0174051;0.00394447
50.64;96;77.3182;18.6818;0.0168776;0.00338101
50.7;97;77.4327;19.5673;0.0170534;0.00354126
50.76;80;77.5482;2.45176;0.0140647;0.000443717
50.82;87;77.6646;9.33544;0.0152954;0.00168952
50.88;83;77.7815;5.21845;0.0145921;0.000944429
50.94;99;77.899;21.101;0.0174051;0.00381884
51;94;78.0166;15.9834;0.016526;0.00289266
51.06;96;78.1341;17.8659;0.0168776;0.00323334
51.12;104;78.2514;25.7486;0.0182841;0.00465995
51.18;102;78.3681;23.6319;0.0179325;0.00427687
51.24;90;78.4841;11.5159;0.0158228;0.00208414
51.3;111;78.599;32.401;0.0195148;0.00586389
51.36;117;78.7128;38.2872;0.0205696;0.00692917
51.42;109;78.8252;30.1748;0.0191632;0.00546099
51.48;93;78.936;14.064;0.0163502;0.00254528
51.54;96;79.045;16.955;0.0168776;0.00306849
51.6;103;79.1521;23.8479;0.0181083;0.00431596
51.66;91;79.257;11.743;0.0159986;0.00212523
51.72;111;79.3596;31.6404;0.0195148;0.00572624
51.78;140;79.4597;60.5403;0.0246132;0.0109565
51.84;131;79.5571;51.4429;0.0230309;0.00931007
51.9;114;79.6517;34.3483;0.0200422;0.00621631
51.96;137;79.7434;57.2566;0.0240858;0.0103622
52.02;101;79.8321;21.1679;0.0177567;0.00383094
52.08;101;79.9176;21.0824;0.0177567;0.00381547
52.14;122;79.9998;42.0002;0.0214487;0.00760115
52.2;99;80.0786;18.9214;0.0174051;0.00342436
52.26;115;80.154;34.846;0.020218;0.00630638
52.32;114;80.2259;33.7741;0.0200422;0.00611239
52.38;128;80.2942;47.7058;0.0225035;0.00863374
52.44;119;80.3587;38.6413;0.0209212;0.00699325
52.5;115;80.4196;34.5804;0.020218;0.00625832
52.56;120;80.4767;39.5233;0.021097;0.00715288
52.62;96;80.53;15.47;0.0168776;0.00279974
52.68;113;80.5794;32.4206;0.0198664;0.00586743
52.74;113;80.625;32.375;0.0198664;0.00585918
52.8;118;80.6668;37.3332;0.0207454;0.00675652
52.86;94;80.7046;13.2954;0.016526;0.00240618
52.92;108;80.7387;27.2613;0.0189873;0.00493372
52.98;121;80.7688;40.2312;0.0212729;0.00728099
53.04;120;80.7951;39.2049;0.021097;0.00709525
53.1;103;80.8177;22.1823;0.0181083;0.00401453
53.16;104;80.8365;23.1635;0.0182841;0.00419211
53.22;105;80.8515;24.1485;0.0184599;0.00437036
53.28;91;80.8629;10.1371;0.0159986;0.0018346
53.34;105;80.8707;24.1293;0.0184599;0.00436689
53.4;114;80.8749;33.1251;0.0200422;0.00599494
53.46;89;80.8757;8.12434;0.015647;0.00147033
53.52;102;80.873;21.127;0.0179325;0.00382354
53.58;124;80.867;43.133;0.0218003;0.00780617
53.64;115;80.8577;34.1423;0.020218;0.00617904
53.7;122;80.8452;41.1548;0.0214487;0.00744814
53.76;110;80.8297;29.1703;0.019339;0.00527921
53.82;110;80.8112;29.1888;0.019339;0.00528256
53.88;105;80.7898;24.2102;0.0184599;0.00438153
53.94;116;80.7657;35.2343;0.0203938;0.00637665
54;114;80.739;33.261;0.0200422;0.00601953
54.06;115;80.7098;34.2902;0.020218;0.00620579
54.12;102;80.6783;21.3217;0.0179325;0.00385877
54.18;99;80.6446;18.3554;0.0174051;0.00332194
54.24;95;80.6089;14.3911;0.0167018;0.00260449
54.3;110;80.5713;29.4287;0.019339;0.00532598
54.36;96;80.532;15.468;0.0168776;0.00279939
54.42;84;80.4912;3.50884;0.0147679;0.000635025
54.48;89;80.449;8.55097;0.015647;0.00154754
54.54;102;80.4058;21.5942;0.0179325;0.0039081
54.6;88;80.3615;7.63849;0.0154712;0.0013824
54.66;88;80.3165;7.6835;0.0154712;0.00139055
54.72;113;80.2709;32.7291;0.0198664;0.00592327
54.78;103;80.2249;22.7751;0.0181083;0.00412181
54.84;89;80.1787;8.82133;0.015647;0.00159647
54.9;78;80.1324;-2.13241;0.0137131;-0.000385921
54.96;98;80.0863;17.9137;0.0172293;0.003242
55.02;97;80.0404;16.9596;0.0170534;0.00306933
55.08;91;79.9947;11.0053;0.0159986;0.00199172
55.14;97;79.9494;17.0506;0.0170534;0.00308579
55.2;103;79.9046;23.0954;0.0181083;0.00417978
55.26;78;79.8602;-1.86016;0.0137131;-0.00033665
55.32;92;79.8163;12.1837;0.0161744;0.00220499
55.38;96;79.773;16.227;0.0168776;0.00293675
55.44;111;79.73;31.27;0.0195148;0.0056592
55.5;107;79.6873;27.3127;0.0188115;0.00494302
55.56;90;79.6446;10.3554;0.0158228;0.00187411
55.62;95;79.6017;15.3983;0.0167018;0.00278676
55.68;102;79.5585;22.4415;0.0179325;0.00406144
55.74;90;79.5147;10.4853;0.0158228;0.00189763
55.8;105;79.4701;25.5299;0.0184599;0.00462037
55.86;111;79.4247;31.5753;0.0195148;0.00571446
55.92;111;79.3781;31.6219;0.0195148;0.00572288
55.98;122;79.3304;42.6696;0.0214487;0.00772229
56.04;98;79.2813;18.7187;0.0172293;0.0033877
56.1;94;79.2306;14.7694;0.016526;0.00267295
56.16;116;79.1783;36.8217;0.0203938;0.00666395
56.22;97;79.1242;17.8758;0.0170534;0.00323515
56.28;95;79.0681;15.9319;0.0167018;0.00288333
56.34;87;79.0101;7.9899;0.0152954;0.001446
56.4;88;78.9499;9.05009;0.0154712;0.00163787
56.46;92;78.8875;13.1125;0.0161744;0.00237309
56.52;100;78.8227;21.1773;0.0175809;0.00383264
56.58;97;78.7555;18.2445;0.0170534;0.00330188
56.64;96;78.6857;17.3143;0.0168776;0.00313353
56.7;107;78.6132;28.3868;0.0188115;0.0051374
56.76;87;78.5381;8.46194;0.0152954;0.00153143
56.82;107;78.4601;28.5399;0.0188115;0.00516512
56.88;104;78.3792;25.6208;0.0182841;0.00463682
56.94;102;78.2954;23.7046;0.0179325;0.00429003
57;86;78.2085;7.7915;0.0151195;0.0014101
57.06;110;78.1185;31.8815;0.019339;0.00576987
57.12;102;78.0254;23.9746;0.0179325;0.0043389
57.18;99;77.929;21.071;0.0174051;0.0038134
57.24;106;77.8294;28.1706;0.0186357;0.00509829
57.3;104;77.7264;26.2736;0.0182841;0.00475497
57.36;99;77.6199;21.3801;0.0174051;0.00386934
57.42;109;77.5101;31.4899;0.0191632;0.005699
57.48;107;77.3968;29.6032;0.0188115;0.00535755
57.54;98;77.28;20.72;0.0172293;0.00374988
57.6;79;77.1596;1.84037;0.0138889;0.000333067
57.66;104;77.0358;26.9642;0.0182841;0.00487996
57.72;94;76.9083;17.0917;0.016526;0.00309323
57.78;101;76.7773;24.2227;0.0177567;0.00438379
57.84;87;76.6428;10.3572;0.0152954;0.00187443
57.9;97;76.5048;20.4952;0.0170534;0.0037092
57.96;86;76.3632;9.63681;0.0151195;0.00174406
58.02;100;76.2181;23.7819;0.0175809;0.00430402
58.08;100;76.0695;23.9305;0.0175809;0.0043309
58.14;93;75.9175;17.0825;0.0163502;0.00309156
58.2;92;75.7621;16.2379;0.0161744;0.00293871
58.26;91;75.6033;15.3967;0.0159986;0.00278647
58.32;95;75.4412;19.5588;0.0167018;0.00353973
58.38;100;75.2757;24.7243;0.0175809;0.00447457
58.44;87;75.1071;11.8929;0.0152954;0.00215237
58.5;103;74.9352;28.0648;0.0181083;0.00507913
58.56;96;74.7602;21.2398;0.0168776;0.00384395
58.62;107;74.5822;32.4178;0.0188115;0.00586694
58.68;94;74.4011;19.5989;0.016526;0.00354698
58.74;89;74.2172;14.7828;0.015647;0.00267537
58.8;91;74.0304;16.9696;0.0159986;0.00307114
58.86;78;73.8408;4.15917;0.0137131;0.000752722
58.92;81;73.6486;7.35141;0.0142405;0.00133045
58.98;91;73.4538;17.5462;0.0159986;0.0031755
59.04;91;73.2564;17.7436;0.0159986;0.00321121
59.1;104;73.0567;30.9433;0.0182841;0.00560008
59.16;94;72.8547;21.1453;0.016526;0.00382685
59.22;103;72.6505;30.3495;0.0181083;0.00549261
59.28;101;72.4443;28.5557;0.0177567;0.00516798
59.34;82;72.236;9.76397;0.0144163;0.00176707
59.4;114;72.026;41.974;0.0200422;0.00759641
59.46;96;71.8142;24.1858;0.0168776;0.00437711
59.52;89;71.6009;17.3991;0.015647;0.00314886
59.58;93;71.3862;21.6138;0.0163502;0.00391163
59.64;104;71.1703;32.8297;0.0182841;0.00594149
59.7;106;70.9532;35.0468;0.0186357;0.00634273
59.76;76;70.7351;5.26488;0.0133615;0.000952832
59.82;81;70.5163;10.4837;0.0142405;0.00189733
59.88;89;70.2968;18.7032;0.015647;0.00338488
59.94;69;70.0769;-1.07693;0.0121308;-0.000194901
60;75;69.8567;5.14326;0.0131857;0.000930822
60.06;69;69.6364;-0.636371;0.0121308;-0.00011517
60.12;68;69.4159;-1.41594;0.011955;-0.000256254
60.18;93;69.1955;23.8045;0.0163502;0.00430811
60.24;69;68.975;0.0249591;0.0121308;4.51707e-06
60.3;90;68.7546;21.2454;0.0158228;0.00384497
60.36;116;68.534;47.466;0.0203938;0.00859033
60.42;87;68.3135;18.6865;0.0152954;0.00338186
60.48;76;68.0929;7.9071;0.0133615;0.00143102
60.54;91;67.8723;23.1277;0.0159986;0.00418563
60.6;94;67.6516;26.3484;0.016526;0.00476849
60.66;85;67.431;17.569;0.0149437;0.00317962
60.72;83;67.2104;15.7896;0.0145921;0.00285759
60.765;88;67.0449;20.9551;0.0154712;0.00379243