File: Methods/XRD_test/0_xy/01_Sample 1_XRD001.xy
   4.5000      169
   4.5450      162
   4.5900      161
   4.6350      184
   4.6800      189
   4.7250      178
   4.7700      154
   4.8150      177
   4.8600      151
   4.9050      165
   4.9500      186
   4.9950      172
   5.0400      183
   5.0850      173
   5.1300      187
   5.1750      208
   5.2200      202
   5.2650      161
   5.3100      186
   5.3550      180
   5.4000      187
   5.4450      180
   5.4900      156
   5.5350      188
   5.5800      182
   5.6250      177
   5.6700      170
   5.7150      173
   5.7600      173
   5.8050      167
   5.8500      165
   5.8950      182
   5.9400      161
   5.9850      172
   6.0300      150
   6.0750      160
   6.1200      165
   6.1650      176
   6.2100      187
   6.2550      169
   6.3000      178
   6.3450      157
   6.3900      157
   6.4350      184
   6.4800      173
   6.5250      187
   6.5700      189
   6.6150      188
   6.6600      205
   6.7050      198
   6.7500      229
   6.7950      248
   6.8400      321
   6.8850      405
   6.9300      537
   6.9750      695
   7.0200     1014
   7.0650     1327
   7.1100     1969
   7.1550     2966
   7.2000     5086
   7.2450     6365
   7.2900     1120
   7.3350      367
   7.3800      319
   7.4250      320
   7.4700      346
   7.5150      381
   7.5600      577
   7.6050      704
   7.6500      996
   7.6950     1414
   7.7400     2265
   7.7850     4244
   7.8300     2776
   7.8750      490
   7.9200      324
   7.9650      292
   8.0100      241
   8.0550      162
   8.1000      178
   8.1450      150
   8.1900      179
   8.2350      167
   8.2800      151
   8.3250      165
   8.3700      165
   8.4150      159
   8.4600      164
   8.5050      161
   8.5500      139
   8.5950      176
   8.6400      170
   8.6850      161
   8.7300      154
   8.7750      159
   8.8200      170
   8.8650      178
   8.9100      157
   8.9550      151
   9.0000      156
   9.0450      173
   9.0900      164
   9.1350      165
   9.1800      184
   9.2250      187
   9.2700      164
   9.3150      171
   9.3600      150
   9.4050      136
   9.4500      147
   9.4950      165
   9.5400      155
   9.5850      173
   9.6300      170
   9.6750      175
   9.7200      169
   9.7650      188
   9.8100      191
   9.8550      176
   9.9000      228
   9.9450      219
   9.9900      268
  10.0350      361
  10.0800      481
  10.1250      565
  10.1700      276
  10.2150      230
  10.2600      239
  10.3050      236
  10.3500      270
  10.3950      302
  10.4400      203
  10.4850      207
  10.5300      196
  10.5750      217
  10.6200      253
  10.6650      298
  10.7100      356
  10.7550      316
  10.8000      393
  10.8450      514
  10.8900      322
  10.9350      204
  10.9800      248
  11.0250      213
  11.0700      196
  11.1150      171
  11.1600      177
  11.2050      172
  11.2500      166
  11.2950      191
  11.3400      190
  11.3850      168
  11.4300      157
  11.4750      163
  11.5200      154
  11.5650      175
  11.6100      169
  11.6550      172
  11.7000      148
  11.7450      162
  11.7900      184
  11.8350      163
  11.8800      177
  11.9250      141
  11.9700      176
  12.0150      173
  12.0600      173
  12.1050      193
  12.1500      223
  12.1950      257
  12.2400      248
  12.2850      163
  12.3300      167
  12.3750      166
  12.4200      162
  12.4650      173
  12.5100      183
  12.5550      172
  12.6000      215
  12.6450      237
  12.6900      355
  12.7350      317
  12.7800      431
  12.8250      650
  12.8700      830
  12.9150      357
  12.9600      244
  13.0050      191
  13.0500      194
  13.0950      180
  13.1400      186
  13.1850      236
  13.2300      248
  13.2750      238
  13.3200      198
  13.3650      282
  13.4100      418
  13.4550      509
  13.5000      337
  13.5450      300
  13.5900      374
  13.6350      583
  13.6800      979
  13.7250      531
  13.7700      203
  13.8150      195
  13.8600      191
  13.9050      167
  13.9500      183
  13.9950      144
  14.0400      169
  14.0850      165
  14.1300      188
  14.1750      232
  14.2200      185
  14.2650      202
  14.3100      197
  14.3550      231
  14.4000      232
  14.4450      233
  14.4900      274
  14.5350      214
  14.5800      168
  14.6250      151
  14.6700      146
  14.7150      152
  14.7600      178
  14.8050      153
  14.8500      200
  14.8950      267
  14.9400      343
  14.9850      571
  15.0300      769
  15.0750     1080
  15.1200      559
  15.1650      267
  15.2100      174
  15.2550      189
  15.3000      214
  15.3450      275
  15.3900      367
  15.4350      425
  15.4800      218
  15.5250      195
  15.5700      213
  15.6150      236
  15.6600      208
  15.7050      262
  15.7500      399
  15.7950      492
  15.8400      494
  15.8850      430
  15.9300      462
  15.9750      614
  16.0200      415
  16.0650      208
  16.1100      185
  16.1550      173
  16.2000      184
  16.2450      219
  16.2900      217
  16.3350      348
  16.3800      570
  16.4250     1045
  16.4700     1899
  16.5150     1165
  16.5600      861
  16.6050     1194
  16.6500      708
  16.6950      341
  16.7400      196
  16.7850      208
  16.8300      205
  16.8750      234
  16.9200      219
  16.9650      256
  17.0100      282
  17.0550      468
  17.1000      695
  17.1450      433
  17.1900      222
  17.2350      180
  17.2800      153
  17.3250      160
  17.3700      150
  17.4150      155
  17.4600      133
  17.5050      130
  17.5500      134
  17.5950      133
  17.6400      146
  17.6850      161
  17.7300      177
  17.7750      182
  17.8200      171
  17.8650      157
  17.9100      141
  17.9550      146
  18.0000      140
  18.0450      165
  18.0900      242
  18.1350      373
  18.1800      558
  18.2250      973
  18.2700     1107
  18.3150     1052
  18.3600     1569
  18.4050     1452
  18.4500      622
  18.4950      316
  18.5400      306
  18.5850      249
  18.6300      239
  18.6750      280
  18.7200      373
  18.7650      745
  18.8100      900
  18.8550      514
  18.9000      470
  18.9450      780
  18.9900     1047
  19.0350      576
  19.0800      275
  19.1250      248
  19.1700      192
  19.2150      179
  19.2600      175
  19.3050      187
  19.3500      173
  19.3950      186
  19.4400      161
  19.4850      171
  19.5300      190
  19.5750      166
  19.6200      181
  19.6650      181
  19.7100      222
  19.7550      299
  19.8000      472
  19.8450      942
  19.8900     1597
  19.9350     1437
  19.9800      857
  20.0250      873
  20.0700      591
  20.1150      470
  20.1600      363
  20.2050      304
  20.2500      312
  20.2950      443
  20.3400      530
  20.3850      411
  20.4300      316
  20.4750      338
  20.5200      462
  20.5650      759
  20.6100      481
  20.6550      306
  20.7000      258
  20.7450      314
  20.7900      463
  20.8350      673
  20.8800      676
  20.9250      420
  20.9700      262
  21.0150      303
  21.0600      274
  21.1050      334
  21.1500      533
  21.1950      843
  21.2400      709
  21.2850      452
  21.3300      478
  21.3750      379
  21.4200      367
  21.4650      571
  21.5100      816
  21.5550      636
  21.6000      343
  21.6450      253
  21.6900      249
  21.7350      264
  21.7800      355
  21.8250      483
  21.8700      414
  21.9150      223
  21.9600      199
  22.0050      211
  22.0500      233
  22.0950      219
  22.1400      153
  22.1850      162
  22.2300      138
  22.2750      123
  22.3200      124
  22.3650      132
  22.4100      109
  22.4550      110
  22.5000      109
  22.5450      122
  22.5900      135
  22.6350      120
  22.6800      129
  22.7250      119
  22.7700      146
  22.8150      116
  22.8600      148
  22.9050      146
  22.9500      132
  22.9950      127
  23.0400      124
  23.0850      140
  23.1300      135
  23.1750      123
  23.2200      129
  23.2650      161
  23.3100      193
  23.3550      241
  23.4000      181
  23.4450      130
  23.4900      132
  23.5350      121
  23.5800      120
  23.6250      133
  23.6700      138
  23.7150      152
  23.7600      162
  23.8050      173
  23.8500      175
  23.8950      202
  23.9400      316
  23.9850      479
  24.0300      346
  24.0750      303
  24.1200      329
  24.1650      301
  24.2100      225
  24.2550      169
  24.3000      175
  24.3450      181
  24.3900      234
  24.4350      276
  24.4800      365
  24.5250      576
  24.5700      960
  24.6150      951
  24.6600      408
  24.7050      247
  24.7500      295
  24.7950      387
  24.8400      398
  24.8850      268
  24.9300      314
  24.9750      402
  25.0200      337
  25.0650      219
  25.1100      173
  25.1550      164
  25.2000      185
  25.2450      200
  25.2900      201
  25.3350      170
  25.3800      178
  25.4250      203
  25.4700      256
  25.5150      337
  25.5600      244
  25.6050      196
  25.6500      195
  25.6950      235
  25.7400      258
  25.7850      396
  25.8300      590
  25.8750      443
  25.9200      265
  25.9650      233
  26.0100      200
  26.0550      165
  26.1000      168
  26.1450      187
  26.1900      165
  26.2350      163
  26.2800      177
  26.3250      219
  26.3700      228
  26.4150      164
  26.4600      175
  26.5050      175
  26.5500      223
  26.5950      440
  26.6400      775
  26.6850      672
  26.7300      321
  26.7750      209
  26.8200      234
  26.8650      260
  26.9100      283
  26.9550      372
  27.0000      498
  27.0450      415
  27.0900      298
  27.1350      261
  27.1800      217
  27.2250      217
  27.2700      230
  27.3150      309
  27.3600      578
  27.4050      866
  27.4500      821
  27.4950      432
  27.5400      364
  27.5850      472
  27.6300      396
  27.6750      417
  27.7200      419
  27.7650      344
  27.8100      266
  27.8550      185
  27.9000      171
  27.9450      162
  27.9900      143
  28.0350      169
  28.0800      169
  28.1250      165
  28.1700      149
  28.2150      159
  28.2600      154
  28.3050      196
  28.3500      171
  28.3950      199
  28.4400      208
  28.4850      208
  28.5300      169
  28.5750      169
  28.6200      163
  28.6650      196
  28.7100      207
  28.7550      183
  28.8000      143
  28.8450      152
  28.8900      138
  28.9350      138
  28.9800      174
  29.0250      213
  29.0700      203
  29.1150      134
  29.1600      148
  29.2050      133
  29.2500      143
  29.2950      144
  29.3400      141
  29.3850      157
  29.4300      139
  29.4750      119
  29.5200      113
  29.5650      138
  29.6100      126
  29.6550      128
  29.7000      116
  29.7450      102
  29.7900      112
  29.8350      106
  29.8800      114
  29.9250      132
  29.9700      134
  30.0150      129
  30.0600      133
  30.1050      136
  30.1500      124
  30.1950      133
  30.2400      120
  30.2850      154
  30.3300      171
  30.3750      213
  30.4200      245
  30.4650      226
  30.5100      150
  30.5550      165
  30.6000      168
  30.6450      157
  30.6900      142
  30.7350      141
  30.7800      117
  30.8250      116
  30.8700      126
  30.9150      131
  30.9600      125
  31.0050      185
  31.0500      227
  31.0950      235
  31.1400      237
  31.1850      206
  31.2300      169
  31.2750      157
  31.3200      147
  31.3650      126
  31.4100      182
  31.4550      180
  31.5000      201
  31.5450      162
  31.5900      135
  31.6350      143
  31.6800      149
  31.7250      165
  31.7700      167
  31.8150      173
  31.8600      190
  31.9050      194
  31.9500      241
  31.9950      216
  32.0400      186
  32.0850      167
  32.1300      148
  32.1750      138
  32.2200      152
  32.2650      161
  32.3100      191
  32.3550      204
  32.4000      169
  32.4450      167
  32.4900      129
  32.5350      132
  32.5800      134
  32.6250      158
  32.6700      166
  32.7150      180
  32.7600      134
  32.8050      140
  32.8500      112
  32.8950      116
  32.9400      146
  32.9850      151
  33.0300      149
  33.0750      152
  33.1200      182
  33.1650      241
  33.2100      294
  33.2550      249
  33.3000      190
  33.3450      178
  33.3900      165
  33.4350      138
  33.4800      164
  33.5250      167
  33.5700      192
  33.6150      174
  33.6600      199
  33.7050      184
  33.7500      166
  33.7950      142
  33.8400      128
  33.8850      116
  33.9300      120
  33.9750      141
  34.0200      137
  34.0650      152
  34.1100      155
  34.1550      165
  34.2000      154
  34.2450      152
  34.2900      154
  34.3350      186
  34.3800      209
  34.4250      206
  34.4700      213
  34.5150      157
  34.5600      218
  34.6050      242
  34.6500      253
  34.6950      194
  34.7400      162
  34.7850      130
  34.8300      128
  34.8750      117
  34.9200      111
  34.9650      130
  35.0100      122
  35.0550      107
  35.1000      160
  35.1450      138
  35.1900      148
  35.2350      181
  35.2800      186
  35.3250      191
  35.3700      233
  35.4150      187
  35.4600      162
  35.5050      172
  35.5500      228
  35.5950      244
  35.6400      221
  35.6850      179
  35.7300      172
  35.7750      137
  35.8200      142
  35.8650      152
  35.9100      181
  35.9550      207
  36.0000      179
  36.0450      195
  36.0900      207
  36.1350      216
  36.1800      198
  36.2250      226
  36.2700      226
  36.3150      307
  36.3600      358
  36.4050      434
  36.4500      356
  36.4950      310
  36.5400      250
  36.5850      224
  36.6300      216
  36.6750      181
  36.7200      173
  36.7650      165
  36.8100      148
  36.8550      163
  36.9000      152
  36.9450      158
  36.9900      187
  37.0350      182
  37.0800      171
  37.1250      144
  37.1700      150
  37.2150      193
  37.2600      197
  37.3050      246
  37.3500      252
  37.3950      211
  37.4400      174
  37.4850      163
  37.5300      177
  37.5750      186
  37.6200      162
  37.6650      154
  37.7100      161
  37.7550      162
  37.8000      177
  37.8450      182
  37.8900      215
  37.9350      230
  37.9800      208
  38.0250      171
  38.0700      192
  38.1150      199
  38.1600      222
  38.2050      246
  38.2500      209
  38.2950      161
  38.3400      163
  38.3850      176
  38.4300      177
  38.4750      167
  38.5200      169
  38.5650      178
  38.6100      172
  38.6550      163
  38.7000      156
  38.7450      164
  38.7900      160
  38.8350      198
  38.8800      216
  38.9250      190
  38.9700      175
  39.0150      181
  39.0600      152
  39.1050      178
  39.1500      146
  39.1950      130
  39.2400      138
  39.2850      142
  39.3300      153
  39.3750      149
  39.4200      135
  39.4650      127
  39.5100      144
  39.5550      154
  39.6000      178
  39.6450      189
  39.6900      181
  39.7350      146
  39.7800      140
  39.8250      156
  39.8700      166
  39.9150      172
  39.9600      168
  40.0050      144
  40.0500      145
  40.0950      174
  40.1400      183
  40.1850      155
  40.2300      141
  40.2750      126
  40.3200      138
  40.3650      131
  40.4100      156
  40.4550      187
  40.5000      177
  40.5450      167
  40.5900      148
  40.6350      188
  40.6800      208
  40.7250      207
  40.7700      183
  40.8150      169
  40.8600      168
  40.9050      170
  40.9500      148
  40.9950      137
  41.0400      128
  41.0850      128
  41.1300      118
  41.1750      134
  41.2200      114
  41.2650      129
  41.3100      159
  41.3550      152
  41.4000      174
  41.4450      194
  41.4900      195
  41.5350      207
  41.5800      169
  41.6250      152
  41.6700      148
  41.7150      144
  41.7600      159
  41.8050      134
  41.8500      130
  41.8950      158
  41.9400      159
  41.9850      176
  42.0300      154
  42.0750      155
  42.1200      153
  42.1650      150
  42.2100      131
  42.2550      168
  42.3000      203
  42.3450      168
  42.3900      176
  42.4350      146
  42.4800      139
  42.5250      136
  42.5700      135
  42.6150      120
  42.6600      131
  42.7050      144
  42.7500      158
  42.7950      165
  42.8400      173
  42.8850      178
  42.9300      188
  42.9750      176
  43.0200      126
  43.0650      123
  43.1100      130
  43.1550      150
  43.2000      168
  43.2450      190
  43.2900      194
  43.3350      169
  43.3800      171
  43.4250      137
  43.4700      140
  43.5150      150
  43.5600      137
  43.6050      179
  43.6500      150
  43.6950      162
  43.7400      140
  43.7850      160
  43.8300      134
  43.8750      116
  43.9200      124
  43.9650      137
  44.0100      121
  44.0550      152
  44.1000      156
  44.1450      131
  44.1900      124
  44.2350      108
  44.2800      123
  44.3250      127
  44.3700      148
  44.4150      128
  44.4600      150
  44.5050      170
  44.5500      159
  44.5950      154
  44.6400      154
  44.6850      122
  44.7300      114
  44.7750      123
  44.8200       99
  44.8650      104
  44.9100      116
  44.9550      109
  45.0000      114
  45.0450      119
  45.0900      117
  45.1350       98
  45.1800       99
  45.2250      111
  45.2700      114
  45.3150      115
  45.3600      124
  45.4050      123
  45.4500      133
  45.4950      143
  45.5400      151
  45.5850      117
  45.6300      112
  45.6750      108
  45.7200      112
  45.7650       97
  45.8100       88
  45.8550      102
  45.9000       94
  45.9450      105
  45.9900      122
  46.0350      109
  46.0800      113
  46.1250      101
  46.1700      107
  46.2150      106
  46.2600       93
  46.3050       96
  46.3500      106
  46.3950       99
  46.4400       92
  46.4850      107
  46.5300       96
  46.5750      105
  46.6200       82
  46.6650       91
  46.7100       89
  46.7550       96
  46.8000      104
  46.8450      106
  46.8900      102
  46.9350       86
  46.9800      103
  47.0250       91
  47.0700      102
  47.1150      104
  47.1600      118
  47.2050      106
  47.2500      113
  47.2950      132
  47.3400      113
  47.3850      113
  47.4300      130
  47.4750      135
  47.5200      106
  47.5650       85
  47.6100      104
  47.6550       90
  47.7000       98
  47.7450      115
  47.7900       92
  47.8350       99
  47.8800       91
  47.9250      111
  47.9700      117
  48.0150      105
  48.0600       94
  48.1050       88
  48.1500      115
  48.1950      109
  48.2400       94
  48.2850      104
  48.3300      106
  48.3750      102
  48.4200       93
  48.4650       98
  48.5100       86
  48.5550       90
  48.6000       95
  48.6450       96
  48.6900       93
  48.7350       85
  48.7800      100
  48.8250       84
  48.8700      103
  48.9150       94
  48.9600       96
  49.0050      115
  49.0500      112
  49.0950       89
  49.1400       96
  49.1850      114
  49.2300      120
  49.2750      120
  49.3200      100
  49.3650      106
  49.4100       90
  49.4550      101
  49.5000      118
  49.5450      102
  49.5900      104
  49.6350      103
  49.6800      108
  49.7250      106
  49.7700       88
  49.8150      103
  49.8600       89
  49.9050       90
  49.9500       89
  49.9950      107
  50.0400      114
  50.0850      126
  50.1300      111
  50.1750      118
  50.2200      108
  50.2650      131
  50.3100      121
  50.3550      100
  50.4000      127
  50.4450      107
  50.4900      102
  50.5350       92
  50.5800       95
  50.6250       89
  50.6700       86
  50.7150       93
  50.7600       86
  50.8050       96
  50.8500      111
  50.8950      104
  50.9400       97
  50.9850      109
  51.0300       98
  51.0750      107
  51.1200      113
  51.1650      127
  51.2100      108
  51.2550      107
  51.3000      105
  51.3450      119
  51.3900      112
  51.4350      102
  51.4800       95
  51.5250       82
  51.5700      108
  51.6150      109
  51.6600      112
  51.7050      122
  51.7500      123
  51.7950      125
  51.8400      141
  51.8850      134
  51.9300      122
  51.9750      118
  52.0200      134
  52.0650      130
  52.1100      123
  52.1550      125
  52.2000      104
  52.2450       94
  52.2900      113
  52.3350      115
  52.3800      115
  52.4250      134
  52.4700      129
  52.5150      113
  52.5600      126
  52.6050      101
  52.6500      105
  52.6950      114
  52.7400      121
  52.7850      113
  52.8300      101
  52.8750       96
  52.9200       85
  52.9650      119
  53.0100      115
  53.0550      130
  53.1000      108
  53.1450       90
  53.1900      100
  53.2350      112
  53.2800      112
  53.3250      109
  53.3700      104
  53.4150      101
  53.4600      105
  53.5050      102
  53.5500      118
  53.5950      100
  53.6400      102
  53.6850      111
  53.7300      119
  53.7750      111
  53.8200      112
  53.8650      117
  53.9100      117
  53.9550      120
  54.0000      110
  54.0450      125
  54.0900      111
  54.1350      128
  54.1800       99
  54.2250      113
  54.2700       95
  54.3150      118
  54.3600       97
  54.4050      102
  54.4500       95
  54.4950       91
  54.5400       90
  54.5850       93
  54.6300      100
  54.6750      109
  54.7200       94
  54.7650      110
  54.8100      111
  54.8550       87
  54.9000       99
  54.9450       94
  54.9900      106
  55.0350      102
  55.0800       91
  55.1250       87
  55.1700       88
  55.2150       96
  55.2600       99
  55.3050       90
  55.3500       86
  55.3950      111
  55.4400       86
  55.4850       99
  55.5300      111
  55.5750       90
  55.6200      104
  55.6650      119
  55.7100      106
  55.7550      118
  55.8000      104
  55.8450      122
  55.8900      118
  55.9350      109
  55.9800      121
  56.0250      117
  56.0700      105
  56.1150      109
  56.1600       92
  56.2050       91
  56.2500       94
  56.2950      104
  56.3400       89
  56.3850       89
  56.4300       92
  56.4750       85
  56.5200      107
  56.5650      112
  56.6100       92
  56.6550      103
  56.7000      103
  56.7450      110
  56.7900      109
  56.8350      103
  56.8800       80
  56.9250       91
  56.9700       95
  57.0150       84
  57.0600      107
  57.1050      102
  57.1500      105
  57.1950      113
  57.2400      109
  57.2850      102
  57.3300       98
  57.3750      104
  57.4200      110
  57.4650      126
  57.5100      130
  57.5550      107
  57.6000      113
  57.6450      105
  57.6900       96
  57.7350      106
  57.7800       94
  57.8250       98
  57.8700       78
  57.9150       88
  57.9600       85
  58.0050       91
  58.0500       88
  58.0950       83
  58.1400      106
  58.1850       83
  58.2300       90
  58.2750      113
  58.3200      105
  58.3650       95
  58.4100      104
  58.4550      119
  58.5000       93
  58.5450       91
  58.5900       90
  58.6350       88
  58.6800       87
  58.7250       94
  58.7700       94
  58.8150       82
  58.8600       99
  58.9050       85
  58.9500       96
  58.9950       97
  59.0400      102
  59.0850      107
  59.1300       87
  59.1750       88
  59.2200       90
  59.2650      115
  59.3100       88
  59.3550       98
  59.4000       91
  59.4450       99
  59.4900      105
  59.5350       99
  59.5800      109
  59.6250       87
  59.6700       78
  59.7150       81
  59.7600       77
  59.8050       76
  59.8500       86
  59.8950       63
  59.9400       91
  59.9850       79
  60.0300       80
  60.0750       75
  60.1200       80
  60.1650       87
  60.2100       79
  60.2550       92
  60.3000       89
  60.3450       89
  60.3900       85
  60.4350       85
  60.4800       93
  60.5250       90
  60.5700       95
  60.6150       95
  60.6600       78
  60.7050       69
  60.7500       94
  60.7650       82