File: XRD/Test_XRD/03_Sample 3_XRD001/normal/03_Sample 3_XRD001_basecorr_normal.csv
4.5;255;264.252;-9.25193;0.16921;-0.00745917
4.56;270;264.958;5.04229;0.179164;0.00406524
4.62;274;265.663;8.33725;0.181818;0.00672173
4.68;285;266.366;18.6344;0.189117;0.0150236
4.74;303;267.064;35.9361;0.201062;0.0289727
4.8;300;267.756;32.2445;0.199071;0.0259964
4.86;316;268.438;47.5621;0.209688;0.0383459
4.92;304;269.109;34.8912;0.201725;0.0281303
4.98;320;269.766;50.2342;0.212342;0.0405002
5.04;324;270.407;53.5934;0.214997;0.0432085
5.1;325;271.029;53.9711;0.21566;0.043513
5.16;362;271.63;90.3696;0.240212;0.0728586
5.22;387;272.209;114.791;0.256802;0.092548
5.28;379;272.762;106.238;0.251493;0.0856524
5.34;383;273.287;109.713;0.254147;0.0884539
5.4;386;273.782;112.218;0.256138;0.0904732
5.46;401;274.245;126.755;0.266092;0.102193
5.52;406;274.674;131.326;0.269409;0.105879
5.58;411;275.067;135.933;0.272727;0.109593
5.64;451;275.421;175.579;0.29927;0.141557
5.7;504;275.734;228.266;0.334439;0.184034
5.76;482;276.005;205.995;0.319841;0.166079
5.82;516;276.231;239.769;0.342402;0.193309
5.88;554;276.41;277.59;0.367618;0.223801
5.94;514;276.542;237.458;0.341075;0.191446
6;607;276.623;330.377;0.402787;0.26636
6.06;607;276.652;330.348;0.402787;0.266336
6.12;635;276.627;358.373;0.421367;0.288931
6.18;661;276.547;384.453;0.43862;0.309957
6.24;716;276.411;439.589;0.475116;0.354409
6.3;739;276.216;462.784;0.490378;0.373109
6.36;726;275.962;450.038;0.481752;0.362833
6.42;828;275.648;552.352;0.549436;0.445322
6.48;858;275.272;582.728;0.569343;0.469812
6.54;853;274.834;578.166;0.566025;0.466134
6.6;952;274.332;677.668;0.631719;0.546355
6.66;977;273.767;703.233;0.648308;0.566967
6.72;1077;273.137;803.863;0.714665;0.648097
6.78;1048;272.443;775.557;0.695421;0.625276
6.84;1172;271.684;900.316;0.777704;0.72586
6.9;1219;270.861;948.139;0.808892;0.764417
6.96;1205;269.974;935.026;0.799602;0.753845
7.02;1331;269.023;1061.98;0.883212;0.856196
7.08;1389;268.01;1120.99;0.921699;0.903774
7.14;1463;266.935;1196.07;0.970803;0.964302
7.2;1363;265.8;1097.2;0.904446;0.884594
7.26;1100;264.606;835.394;0.729927;0.673518
7.32;1000;263.356;736.644;0.66357;0.593903
7.38;903;262.052;640.948;0.599204;0.51675
7.44;798;260.696;537.304;0.529529;0.433189
7.5;759;259.291;499.709;0.50365;0.402879
7.56;709;257.84;451.16;0.470471;0.363738
7.62;633;256.344;376.656;0.42004;0.303671
7.68;563;254.808;308.192;0.37359;0.248473
7.74;530;253.234;276.766;0.351692;0.223137
7.8;488;251.625;236.375;0.323822;0.190572
7.86;475;249.985;225.015;0.315196;0.181414
7.92;449;248.316;200.684;0.297943;0.161797
7.98;414;246.622;167.378;0.274718;0.134944
8.04;371;244.907;126.093;0.246184;0.101659
8.1;344;243.174;100.826;0.228268;0.0812888
8.16;330;241.426;88.5742;0.218978;0.0714111
8.22;313;239.666;73.3339;0.207697;0.0591238
8.28;299;237.899;61.1014;0.198407;0.0492617
8.34;280;236.127;43.8734;0.1858;0.035372
8.4;268;234.354;33.6464;0.177837;0.0271267
8.46;288;232.583;55.4169;0.191108;0.0446787
8.52;248;230.819;17.1814;0.164565;0.0138522
8.58;250;229.064;20.9364;0.165893;0.0168795
8.64;261;227.322;33.6783;0.173192;0.0271524
8.7;251;225.596;25.4036;0.166556;0.0204811
8.76;268;223.891;44.1088;0.177837;0.0355618
8.82;237;222.21;14.7904;0.157266;0.0119244
8.88;229;220.555;8.44479;0.151958;0.00680843
8.94;236;218.931;17.0692;0.156603;0.0137617
9;240;217.339;22.661;0.159257;0.0182699
9.06;220;215.782;4.2176;0.145985;0.00340034
9.12;217;214.263;2.73664;0.143995;0.00220635
9.18;234;212.784;21.2158;0.155275;0.0171048
9.24;196;211.347;-15.347;0.13006;-0.0123732
9.3;247;209.954;37.0462;0.163902;0.0298677
9.36;222;208.606;13.3944;0.147313;0.010799
9.42;214;207.303;6.69668;0.142004;0.00539905
9.48;225;206.048;18.952;0.149303;0.0152797
9.54;229;204.84;24.1599;0.151958;0.0194784
9.6;202;203.68;-1.67974;0.134041;-0.00135425
9.66;231;202.567;28.4333;0.153285;0.0229237
9.72;213;201.5;11.4996;0.14134;0.00927134
9.78;225;200.48;24.52;0.149303;0.0197687
9.84;251;199.505;51.4952;0.166556;0.0415169
9.9;239;198.574;40.4258;0.158593;0.0325924
9.96;245;197.687;47.3127;0.162575;0.0381448
10.02;244;196.843;47.1565;0.161911;0.0380189
10.08;213;196.042;16.958;0.14134;0.013672
10.14;243;195.282;47.7178;0.161248;0.0384714
10.2;239;194.563;44.4366;0.158593;0.035826
10.26;231;193.885;37.115;0.153285;0.0299232
10.32;222;193.246;28.7539;0.147313;0.0231822
10.38;241;192.646;48.3538;0.15992;0.0389842
10.44;225;192.085;32.9153;0.149303;0.0265372
10.5;231;191.561;39.4391;0.153285;0.031797
10.56;218;191.074;26.926;0.144658;0.0217085
10.62;222;190.624;31.3763;0.147313;0.0252965
10.68;231;190.209;40.7909;0.153285;0.0328868
10.74;213;189.83;23.1703;0.14134;0.0186806
10.8;237;189.485;47.5152;0.157266;0.0383081
10.86;239;189.174;49.826;0.158593;0.0401711
10.92;231;188.897;42.1035;0.153285;0.033945
10.98;205;188.652;16.3481;0.136032;0.0131803
11.04;233;188.44;44.5604;0.154612;0.0359259
11.1;219;188.259;30.7411;0.145322;0.0247844
11.16;227;188.109;38.8906;0.15063;0.0313547
11.22;219;187.99;31.0095;0.145322;0.0250007
11.28;209;187.902;21.0983;0.138686;0.0170101
11.34;224;187.842;36.1575;0.14864;0.0291512
11.4;217;187.812;29.1877;0.143995;0.023532
11.46;212;187.811;24.1893;0.140677;0.0195021
11.52;219;187.837;31.1629;0.145322;0.0251244
11.58;211;187.891;23.1088;0.140013;0.018631
11.64;227;187.972;39.0277;0.15063;0.0314652
11.7;216;188.08;27.9199;0.143331;0.0225098
11.76;225;188.214;36.7859;0.149303;0.0296578
11.82;243;188.374;54.6262;0.161248;0.0440412
11.88;235;188.559;46.4411;0.155939;0.0374422
11.94;240;188.769;51.2312;0.159257;0.0413041
12;223;189.003;33.9969;0.147976;0.0274093
12.06;218;189.261;28.7385;0.144658;0.0231698
12.12;255;189.544;65.4565;0.16921;0.0527728
12.18;205;189.849;15.1511;0.136032;0.0122153
12.24;252;190.177;61.8229;0.16722;0.0498434
12.3;249;190.528;58.4722;0.165229;0.0471419
12.36;226;190.901;35.0992;0.149967;0.028298
12.42;246;191.296;54.7045;0.163238;0.0441043
12.48;221;191.712;29.2882;0.146649;0.0236129
12.54;240;192.149;47.8507;0.159257;0.0385786
12.6;237;192.608;44.3922;0.157266;0.0357903
12.66;262;193.087;68.9132;0.173855;0.0555598
12.72;276;193.586;82.4138;0.183145;0.0664443
12.78;293;194.106;98.8943;0.194426;0.0797314
12.84;298;194.645;103.355;0.197744;0.0833277
12.9;281;195.204;85.796;0.186463;0.0691712
12.96;272;195.782;76.2176;0.180491;0.0614488
13.02;285;196.38;88.6199;0.189117;0.0714479
13.08;281;196.997;84.0032;0.186463;0.0677257
13.14;285;197.633;87.3674;0.189117;0.0704381
13.2;310;198.287;111.713;0.205707;0.090066
13.26;298;198.961;99.0394;0.197744;0.0798484
13.32;284;199.653;84.3474;0.188454;0.0680032
13.38;283;200.363;82.6366;0.18779;0.066624
13.44;277;201.093;75.9073;0.183809;0.0611986
13.5;281;201.841;79.1592;0.186463;0.0638204
13.56;301;202.607;98.3925;0.199735;0.0793268
13.62;281;203.393;77.6071;0.186463;0.062569
13.68;295;204.197;90.8028;0.195753;0.0732078
13.74;345;205.02;139.98;0.228932;0.112856
13.8;318;205.863;112.137;0.211015;0.0904084
13.86;335;206.724;128.276;0.222296;0.10342
13.92;298;207.605;90.3952;0.197744;0.0728792
13.98;296;208.505;87.4948;0.196417;0.0705408
14.04;320;209.425;110.575;0.212342;0.0891483
14.1;283;210.366;72.6342;0.18779;0.0585598
14.16;324;211.327;112.673;0.214997;0.0908406
14.22;293;212.308;80.6921;0.194426;0.0650562
14.28;270;213.31;56.6896;0.179164;0.0457048
14.34;291;214.334;76.6658;0.193099;0.0618101
14.4;296;215.38;80.6202;0.196417;0.0649983
14.46;254;216.448;37.5525;0.168547;0.0302759
14.52;245;217.538;27.4622;0.162575;0.0221408
14.58;242;218.651;23.3489;0.160584;0.0188245
14.64;241;219.788;21.2122;0.15992;0.0171019
14.7;229;220.948;8.05172;0.151958;0.00649152
14.76;252;222.133;29.867;0.16722;0.0240796
14.82;220;223.342;-3.34248;0.145985;-0.0026948
14.88;256;224.577;31.423;0.169874;0.0253341
14.94;233;225.837;7.16304;0.154612;0.00577504
15;237;227.122;9.87753;0.157266;0.00796355
15.06;236;228.433;7.56666;0.156603;0.00610045
15.12;248;229.769;18.2308;0.164565;0.0146982
15.18;252;231.13;20.8705;0.16722;0.0168264
15.24;246;232.514;13.486;0.163238;0.0108728
15.3;249;233.922;15.078;0.165229;0.0121563
15.36;285;235.353;49.6471;0.189117;0.0400269
15.42;265;236.805;28.1949;0.175846;0.0227315
15.48;247;238.277;8.72337;0.163902;0.00703303
15.54;304;239.765;64.2347;0.201725;0.0517878
15.6;269;241.269;27.7308;0.1785;0.0223573
15.66;298;242.786;55.2138;0.197744;0.0445149
15.72;327;244.314;82.6858;0.216987;0.0666636
15.78;448;245.851;202.149;0.297279;0.162978
15.84;565;247.396;317.604;0.374917;0.256062
15.9;577;248.945;328.055;0.38288;0.264487
15.96;698;250.497;447.503;0.463172;0.360789
16.02;554;252.051;301.949;0.367618;0.24344
16.08;372;253.605;118.395;0.246848;0.0954534
16.14;320;255.157;64.8432;0.212342;0.0522784
16.2;329;256.705;72.2948;0.218315;0.0582861
16.26;347;258.249;88.7513;0.230259;0.0715538
16.32;347;259.786;87.2143;0.230259;0.0703146
16.38;363;261.315;101.685;0.240876;0.0819816
16.44;376;262.834;113.166;0.249502;0.0912374
16.5;392;264.343;127.657;0.260119;0.102921
16.56;398;265.839;132.161;0.264101;0.106552
16.62;359;267.322;91.6781;0.238222;0.0739135
16.68;368;268.789;99.2106;0.244194;0.0799864
16.74;374;270.24;103.76;0.248175;0.0836539
16.8;397;271.674;125.326;0.263437;0.101042
16.86;377;273.088;103.912;0.250166;0.0837767
16.92;391;274.482;116.518;0.259456;0.0939401
16.98;394;275.854;118.146;0.261447;0.0952523
17.04;364;277.204;86.7959;0.241539;0.0699773
17.1;378;278.53;99.4702;0.250829;0.0801957
17.16;370;279.83;90.1695;0.245521;0.0726972
17.22;375;281.105;93.8951;0.248839;0.0757009
17.28;389;282.352;106.648;0.258129;0.0859827
17.34;399;283.571;115.429;0.264764;0.0930625
17.4;386;284.76;101.24;0.256138;0.0816228
17.46;374;285.918;88.0818;0.248175;0.071014
17.52;414;287.045;126.955;0.274718;0.102355
17.58;349;288.14;60.8603;0.231586;0.0490673
17.64;366;289.201;76.7994;0.242867;0.0619178
17.7;385;290.227;94.7729;0.255474;0.0764086
17.76;383;291.218;91.7818;0.254147;0.0739971
17.82;417;292.173;124.827;0.276709;0.100639
17.88;362;293.091;68.9093;0.240212;0.0555566
17.94;410;293.97;116.03;0.272064;0.0935464
18;381;294.811;86.1889;0.25282;0.0694879
18.06;380;295.612;84.3878;0.252157;0.0680358
18.12;400;296.373;103.627;0.265428;0.0835471
18.18;394;297.092;96.9076;0.261447;0.0781296
18.24;376;297.77;78.23;0.249502;0.0630713
18.3;389;298.405;90.5951;0.258129;0.0730403
18.36;395;298.997;96.0035;0.26211;0.0774007
18.42;374;299.544;74.4559;0.248175;0.0600284
18.48;377;300.047;76.9529;0.250166;0.0620416
18.54;445;300.505;144.495;0.295289;0.116496
18.6;436;300.917;135.083;0.289317;0.108908
18.66;405;301.282;103.718;0.268746;0.08362
18.72;452;301.601;150.399;0.299934;0.121256
18.78;471;301.872;169.128;0.312541;0.136355
18.84;638;302.096;335.904;0.423358;0.270815
18.9;847;302.271;544.729;0.562044;0.439176
18.96;1166;302.398;863.602;0.773723;0.69626
19.02;978;302.476;675.524;0.648971;0.544627
19.08;609;302.505;306.495;0.404114;0.247105
19.14;478;302.486;175.514;0.317186;0.141504
19.2;438;302.418;135.582;0.290644;0.10931
19.26;414;302.303;111.697;0.274718;0.0900537
19.32;423;302.139;120.861;0.28069;0.0974414
19.38;401;301.929;99.0713;0.266092;0.0798741
19.44;425;301.671;123.329;0.282017;0.0994311
19.5;397;301.367;95.6326;0.263437;0.0771017
19.56;394;301.018;92.9823;0.261447;0.074965
19.62;388;300.622;87.3775;0.257465;0.0704462
19.68;419;300.182;118.818;0.278036;0.0957942
19.74;380;299.698;80.3021;0.252157;0.0647418
19.8;398;299.17;98.8304;0.264101;0.0796799
19.86;412;298.598;113.402;0.273391;0.0914278
19.92;415;297.984;117.016;0.275382;0.0943415
19.98;447;297.328;149.672;0.296616;0.12067
20.04;519;296.631;222.369;0.344393;0.17928
20.1;601;295.893;305.107;0.398806;0.245985
20.16;549;295.116;253.884;0.3643;0.204688
20.22;497;294.3;202.7;0.329794;0.163422
20.28;453;293.446;159.554;0.300597;0.128637
20.34;468;292.555;175.445;0.310551;0.141449
20.4;525;291.628;233.372;0.348374;0.188151
20.46;432;290.666;141.334;0.286662;0.113948
20.52;421;289.67;131.33;0.279363;0.105882
20.58;414;288.642;125.358;0.274718;0.101067
20.64;433;287.582;145.418;0.287326;0.11724
20.7;372;286.492;85.5082;0.246848;0.0689391
20.76;339;285.373;53.6271;0.22495;0.0432357
20.82;348;284.226;63.7738;0.230922;0.0514162
20.88;372;283.053;88.9468;0.246848;0.0717114
20.94;360;281.855;78.1448;0.238885;0.0630026
21;349;280.633;68.3666;0.231586;0.0551191
21.06;333;279.389;53.6107;0.220969;0.0432225
21.12;342;278.124;63.8758;0.226941;0.0514985
21.18;314;276.84;37.1605;0.208361;0.0299598
21.24;339;275.537;63.4633;0.22495;0.0511659
21.3;318;274.217;43.783;0.211015;0.0352991
21.36;323;272.882;50.1179;0.214333;0.0404065
21.42;325;271.533;53.4667;0.21566;0.0431064
21.48;336;270.172;65.8279;0.22296;0.0530724
21.54;315;268.8;46.2001;0.209025;0.0372478
21.6;353;267.418;85.5816;0.23424;0.0689983
21.66;365;266.029;98.9711;0.242203;0.0797933
21.72;347;264.633;82.3669;0.230259;0.0664065
21.78;323;263.232;59.7675;0.214333;0.0481863
21.84;298;261.829;36.1714;0.197744;0.0291624
21.9;289;260.423;28.5769;0.191772;0.0230395
21.96;261;259.018;1.98245;0.173192;0.0015983
22.02;302;257.614;44.3864;0.200398;0.0357856
22.08;305;256.213;48.7872;0.202389;0.0393336
22.14;269;254.817;14.1831;0.1785;0.0114348
22.2;281;253.427;27.5726;0.186463;0.0222298
22.26;287;252.046;34.954;0.190445;0.0281809
22.32;279;250.674;28.3257;0.185136;0.022837
22.38;299;249.314;49.6859;0.198407;0.0400582
22.44;272;247.967;24.0331;0.180491;0.0193762
22.5;260;246.634;13.3656;0.172528;0.0107757
22.56;263;245.318;17.6818;0.174519;0.0142556
22.62;263;244.02;18.9803;0.174519;0.0153025
22.68;262;242.74;19.2598;0.173855;0.0155278
22.74;276;241.481;34.519;0.183145;0.0278302
22.8;265;240.244;24.7564;0.175846;0.0199593
22.86;265;239.029;25.9711;0.175846;0.0209386
22.92;248;237.838;10.1623;0.164565;0.00819314
22.98;266;236.671;29.3293;0.17651;0.0236461
23.04;228;235.529;-7.52878;0.151294;-0.00606991
23.1;238;234.413;3.5875;0.15793;0.00289234
23.16;254;233.322;20.6783;0.168547;0.0166714
23.22;241;232.256;8.74389;0.15992;0.00704957
23.28;263;231.215;31.7848;0.174519;0.0256258
23.34;256;230.199;25.8012;0.169874;0.0208017
23.4;251;229.206;21.7937;0.166556;0.0175707
23.46;248;228.237;19.7626;0.164565;0.0159332
23.52;251;227.291;23.7088;0.166556;0.0191147
23.58;275;226.367;48.6329;0.182482;0.0392092
23.64;242;225.464;16.5357;0.160584;0.0133315
23.7;240;224.582;15.418;0.159257;0.0124304
23.76;262;223.72;38.2805;0.173855;0.0308628
23.82;284;222.876;61.1239;0.188454;0.0492798
23.88;255;222.051;32.949;0.16921;0.0265644
23.94;263;221.244;41.7565;0.174519;0.0336652
24;252;220.453;31.547;0.16722;0.0254341
24.06;275;219.679;55.3213;0.182482;0.0446016
24.12;249;218.92;30.0804;0.165229;0.0242516
24.18;278;218.175;59.825;0.184472;0.0482326
24.24;256;217.444;38.5562;0.169874;0.0310851
24.3;257;216.725;40.2749;0.170537;0.0324708
24.36;261;216.018;44.982;0.173192;0.0362658
24.42;280;215.322;64.6785;0.1858;0.0521456
24.48;304;214.635;89.3652;0.201725;0.0720487
24.54;305;213.957;91.043;0.202389;0.0734014
24.6;340;213.287;126.713;0.225614;0.102159
24.66;334;212.625;121.375;0.221632;0.0978562
24.72;300;211.969;88.0315;0.199071;0.0709735
24.78;356;211.318;144.682;0.236231;0.116647
24.84;394;210.672;183.328;0.261447;0.147804
24.9;336;210.031;125.969;0.22296;0.10156
24.96;283;209.393;73.6075;0.18779;0.0593444
25.02;270;208.757;61.2427;0.179164;0.0493756
25.08;243;208.124;34.8757;0.161248;0.0281177
25.14;257;207.493;49.507;0.170537;0.0399139
25.2;262;206.863;55.1372;0.173855;0.0444532
25.26;243;206.233;36.7669;0.161248;0.0296425
25.32;271;205.603;65.3967;0.179827;0.0527247
25.38;273;204.973;68.027;0.181155;0.0548453
25.44;273;204.342;68.6585;0.181155;0.0553544
25.5;256;203.708;52.2915;0.169874;0.0421589
25.56;293;203.073;89.9267;0.194426;0.0725015
25.62;274;202.436;71.5645;0.181818;0.0576973
25.68;289;201.795;87.2053;0.191772;0.0703074
25.74;293;201.15;91.8496;0.194426;0.0740517
25.8;327;200.502;126.498;0.216987;0.101986
25.86;316;199.85;116.15;0.209688;0.0936437
25.92;310;199.192;110.808;0.205707;0.0893362
25.98;280;198.53;81.4699;0.1858;0.0656834
26.04;310;197.862;112.138;0.205707;0.0904085
26.1;290;197.189;92.8109;0.192435;0.0748268
26.16;271;196.51;74.4902;0.179827;0.0600561
26.22;267;195.824;71.1757;0.177173;0.0573839
26.28;281;195.132;85.8676;0.186463;0.0692289
26.34;290;194.434;95.5662;0.192435;0.0770481
26.4;278;193.728;84.2716;0.184472;0.0679421
26.46;274;193.016;80.984;0.181818;0.0652916
26.52;281;192.297;88.7035;0.186463;0.0715153
26.58;263;191.57;71.4303;0.174519;0.0575891
26.64;268;190.836;77.1644;0.177837;0.0622121
26.7;273;190.094;82.906;0.181155;0.0668411
26.76;262;189.345;72.655;0.173855;0.0585765
26.82;260;188.588;71.4116;0.172528;0.0575741
26.88;321;187.824;133.176;0.213006;0.10737
26.94;335;187.053;147.947;0.222296;0.119279
27;321;186.273;134.727;0.213006;0.10862
27.06;330;185.487;144.513;0.218978;0.116511
27.12;285;184.693;100.307;0.189117;0.0808707
27.18;289;183.891;105.109;0.191772;0.0847417
27.24;269;183.083;85.9173;0.1785;0.069269
27.3;264;182.267;81.7327;0.175182;0.0658952
27.36;255;181.445;73.5549;0.16921;0.059302
27.42;261;180.616;80.3835;0.173192;0.0648075
27.48;268;179.782;88.2185;0.177837;0.0711242
27.54;290;178.941;111.059;0.192435;0.0895393
27.6;280;178.094;101.906;0.1858;0.0821596
27.66;232;177.242;54.7582;0.153948;0.0441476
27.72;276;176.385;99.6154;0.183145;0.0803127
27.78;274;175.523;98.4773;0.181818;0.0793952
27.84;270;174.656;95.3435;0.179164;0.0768686
27.9;246;173.786;72.2137;0.163238;0.0582207
27.96;245;172.913;72.0874;0.162575;0.0581189
28.02;228;172.036;55.9642;0.151294;0.0451199
28.08;234;171.156;62.8436;0.155275;0.0506663
28.14;227;170.275;56.7252;0.15063;0.0457334
28.2;216;169.392;46.6084;0.143331;0.037577
28.26;213;168.507;44.4928;0.14134;0.0358714
28.32;203;167.622;35.3779;0.134705;0.0285227
28.38;212;166.737;45.2631;0.140677;0.0364924
28.44;197;165.852;31.148;0.130723;0.0251124
28.5;184;164.968;19.0319;0.122097;0.015344
28.56;207;164.086;42.9143;0.137359;0.0345987
28.62;194;163.205;30.7946;0.128733;0.0248275
28.68;205;162.328;42.6724;0.136032;0.0344037
28.74;178;161.453;16.5469;0.118115;0.0133406
28.8;215;160.582;54.4176;0.142668;0.043873
28.86;190;159.716;30.2839;0.126078;0.0244157
28.92;210;158.855;51.1452;0.13935;0.0412347
28.98;204;157.999;46.0008;0.135368;0.0370872
29.04;247;157.15;89.8502;0.163902;0.0724398
29.1;218;156.307;61.6926;0.144658;0.0497383
29.16;188;155.473;32.5275;0.124751;0.0262246
29.22;176;154.646;21.3541;0.116788;0.0172163
29.28;181;153.828;27.1717;0.120106;0.0219066
29.34;177;153.02;23.9797;0.117452;0.0193331
29.4;177;152.223;24.7774;0.117452;0.0199762
29.46;193;151.436;41.5639;0.128069;0.03351
29.52;175;150.661;24.3387;0.116125;0.0196226
29.58;169;149.899;19.101;0.112143;0.0153998
29.64;182;149.15;32.85;0.12077;0.0264846
29.7;154;148.415;5.58497;0.10219;0.00450276
29.76;187;147.695;39.3052;0.124088;0.0316889
29.82;157;146.99;10.0099;0.10418;0.00807023
29.88;172;146.302;25.6982;0.114134;0.0207187
29.94;175;145.63;29.3696;0.116125;0.0236786
30;172;144.977;27.023;0.114134;0.0217867
30.06;167;144.342;22.6579;0.110816;0.0182674
30.12;151;143.727;7.27334;0.100199;0.00586397
30.18;179;143.131;35.8686;0.118779;0.0289183
30.24;182;142.557;39.4428;0.12077;0.0317999
30.3;146;142.005;3.99538;0.0968812;0.00322119
30.36;147;141.474;5.52591;0.0975448;0.00445515
30.42;148;140.966;7.03394;0.0982084;0.00567096
30.48;148;140.481;7.51905;0.0982084;0.00606207
30.54;156;140.019;15.9812;0.103517;0.0128845
30.6;142;139.58;2.42029;0.0942269;0.0019513
30.66;162;139.163;22.8365;0.107498;0.0184114
30.72;141;138.77;2.22985;0.0935634;0.00179777
30.78;153;138.4;14.6005;0.101526;0.0117713
30.84;138;138.051;-0.0512054;0.0915727;-4.12832e-05
30.9;164;137.725;26.2752;0.108825;0.0211838
30.96;152;137.42;14.5801;0.100863;0.0117549
31.02;166;137.136;28.8638;0.110153;0.0232708
31.08;142;136.873;5.12698;0.0942269;0.00413351
31.14;153;136.63;16.3701;0.101526;0.013198
31.2;168;136.406;31.5936;0.11148;0.0254717
31.26;152;136.202;15.7982;0.100863;0.0127369
31.32;163;136.016;26.9842;0.108162;0.0217555
31.38;169;135.848;33.1523;0.112143;0.0267284
31.44;148;135.697;12.303;0.0982084;0.00991902
31.5;156;135.563;20.4367;0.103517;0.0164766
31.56;165;135.446;29.554;0.109489;0.0238272
31.62;167;135.345;31.6553;0.110816;0.0255214
31.68;169;135.259;33.7411;0.112143;0.0272031
31.74;164;135.188;28.812;0.108825;0.0232291
31.8;154;135.132;18.8685;0.10219;0.0152123
31.86;153;135.089;17.9108;0.101526;0.0144402
31.92;171;135.06;35.9397;0.11347;0.0289756
31.98;190;135.045;54.9554;0.126078;0.0443066
32.04;167;135.041;31.9585;0.110816;0.0257659
32.1;166;135.051;30.9494;0.110153;0.0249523
32.16;174;135.071;38.9285;0.115461;0.0313853
32.22;164;135.104;28.8963;0.108825;0.023297
32.28;181;135.147;45.853;0.120106;0.036968
32.34;190;135.201;54.7993;0.126078;0.0441807
32.4;147;135.265;11.7353;0.0975448;0.00946137
32.46;161;135.338;25.6616;0.106835;0.0206891
32.52;164;135.422;28.5785;0.108825;0.0230408
32.58;164;135.514;28.4863;0.108825;0.0229664
32.64;187;135.615;51.3854;0.124088;0.0414283
32.7;183;135.724;47.2761;0.121433;0.0381153
32.76;187;135.841;51.1588;0.124088;0.0412457
32.82;175;135.966;39.0339;0.116125;0.0314702
32.88;159;136.098;22.9016;0.105508;0.0184639
32.94;182;136.238;45.7622;0.12077;0.0368948
33;184;136.384;47.6161;0.122097;0.0383894
33.06;210;136.537;73.4635;0.13935;0.0592283
33.12;248;136.695;111.305;0.164565;0.089737
33.18;277;136.86;140.14;0.183809;0.112985
33.24;302;137.03;164.97;0.200398;0.133003
33.3;246;137.206;108.794;0.163238;0.0877125
33.36;218;137.388;80.6123;0.144658;0.0649919
33.42;192;137.574;54.4258;0.127405;0.0438796
33.48;194;137.766;56.2342;0.128733;0.0453376
33.54;185;137.962;47.0376;0.12276;0.037923
33.6;164;138.164;25.8361;0.108825;0.0208298
33.66;175;138.37;36.6297;0.116125;0.0295319
33.72;143;138.582;4.41848;0.0948905;0.0035623
33.78;139;138.797;0.202582;0.0922362;0.000163327
33.84;151;139.018;11.982;0.100199;0.00966025
33.9;152;139.243;12.7569;0.100863;0.0102849
33.96;173;139.473;33.5272;0.114798;0.0270305
34.02;163;139.707;23.2929;0.108162;0.0187794
34.08;159;139.946;19.0543;0.105508;0.0153621
34.14;149;140.189;8.81117;0.0988719;0.00710381
34.2;168;140.436;27.5637;0.11148;0.0222226
34.26;153;140.688;12.3118;0.101526;0.00992615
34.32;163;140.944;22.0556;0.108162;0.0177819
34.38;159;141.205;17.7951;0.105508;0.0143469
34.44;154;141.47;12.5302;0.10219;0.0101022
34.5;173;141.739;31.2611;0.114798;0.0252036
34.56;174;142.012;31.9878;0.115461;0.0257895
34.62;172;142.289;29.7106;0.114134;0.0239535
34.68;180;142.57;37.4296;0.119443;0.0301768
34.74;180;142.855;37.1452;0.119443;0.0299475
34.8;173;143.143;29.8575;0.114798;0.0240719
34.86;168;143.433;24.5666;0.11148;0.0198063
34.92;160;143.727;16.2729;0.106171;0.0131197
34.98;170;144.023;25.9767;0.112807;0.0209431
35.04;183;144.322;38.6784;0.121433;0.0311836
35.1;144;144.622;-0.621529;0.0955541;-0.000501094
35.16;188;144.923;43.0775;0.124751;0.0347303
35.22;163;145.224;17.7758;0.108162;0.0143313
35.28;177;145.526;31.4739;0.117452;0.0253752
35.34;181;145.828;35.1724;0.120106;0.028357
35.4;174;146.128;27.8716;0.115461;0.0224709
35.46;171;146.428;24.5721;0.11347;0.0198107
35.52;167;146.726;20.2743;0.110816;0.0163457
35.58;161;147.021;13.9786;0.106835;0.0112699
35.64;164;147.315;16.6855;0.108825;0.0134523
35.7;190;147.605;42.3953;0.126078;0.0341803
35.76;168;147.891;20.1087;0.11148;0.0162122
35.82;195;148.174;46.8259;0.129396;0.0377523
35.88;194;148.453;45.5474;0.128733;0.0367216
35.94;177;148.726;28.2735;0.117452;0.0227949
36;188;148.995;39.0048;0.124751;0.0314468
36.06;194;149.258;44.7416;0.128733;0.0360719
36.12;178;149.516;28.4842;0.118115;0.0229648
36.18;195;149.767;45.2331;0.129396;0.0364682
36.24;198;150.011;47.9886;0.131387;0.0386897
36.3;198;150.249;47.751;0.131387;0.0384982
36.36;207;150.479;56.5208;0.137359;0.0455687
36.42;179;150.702;28.2982;0.118779;0.0228148
36.48;189;150.916;38.0835;0.125415;0.030704
36.54;184;151.123;32.8771;0.122097;0.0265065
36.6;182;151.321;30.6793;0.12077;0.0247345
36.66;193;151.51;41.4904;0.128069;0.0334507
36.72;178;151.689;26.3106;0.118115;0.0212123
36.78;173;151.86;21.1402;0.114798;0.0170438
36.84;206;152.021;53.9795;0.136695;0.0435198
36.9;200;152.171;47.8287;0.132714;0.0385609
36.96;186;152.312;33.6882;0.123424;0.0271603
37.02;212;152.442;59.558;0.140677;0.0480174
37.08;169;152.561;16.4386;0.112143;0.0132533
37.14;171;152.67;18.3301;0.11347;0.0147782
37.2;166;152.767;13.2326;0.110153;0.0106685
37.26;182;152.854;29.1465;0.12077;0.0234987
37.32;209;152.928;56.0719;0.138686;0.0452067
37.38;206;152.991;53.009;0.136695;0.0427373
37.44;182;153.042;28.958;0.12077;0.0233467
37.5;204;153.081;50.919;0.135368;0.0410523
37.56;198;153.108;44.8923;0.131387;0.0361934
37.62;200;153.122;46.8779;0.132714;0.0377943
37.68;202;153.124;48.8761;0.134041;0.0394053
37.74;197;153.113;43.8869;0.130723;0.0353829
37.8;195;153.09;41.9105;0.129396;0.0337894
37.86;169;153.053;15.947;0.112143;0.0128569
37.92;191;153.004;37.9965;0.126742;0.0306338
37.98;190;152.941;37.0591;0.126078;0.0298781
38.04;187;152.865;34.1349;0.124088;0.0275205
38.1;187;152.776;34.224;0.124088;0.0275923
38.16;210;152.674;57.3264;0.13935;0.0462181
38.22;189;152.558;36.4422;0.125415;0.0293807
38.28;212;152.429;59.5715;0.140677;0.0480282
38.34;210;152.286;57.7142;0.13935;0.0465309
38.4;228;152.129;75.8705;0.151294;0.061169
38.46;221;151.96;69.0403;0.146649;0.0556622
38.52;212;151.776;60.2236;0.140677;0.048554
38.58;239;151.58;87.4204;0.158593;0.0704808
38.64;214;151.369;62.6306;0.142004;0.0504945
38.7;223;151.146;71.8541;0.147976;0.0579308
38.76;205;150.909;54.0909;0.136032;0.0436096
38.82;190;150.659;39.341;0.126078;0.0317178
38.88;194;150.396;43.6041;0.128733;0.0351548
38.94;200;150.12;49.8801;0.132714;0.0402148
39;190;149.831;40.169;0.126078;0.0323854
39.06;208;149.529;58.4706;0.138023;0.0471406
39.12;191;149.215;41.7846;0.126742;0.033688
39.18;178;148.889;29.1111;0.118115;0.0234702
39.24;165;148.55;16.4497;0.109489;0.0132622
39.3;170;148.2;21.8003;0.112807;0.017576
39.36;194;147.837;46.1626;0.128733;0.0372176
39.42;180;147.463;32.5365;0.119443;0.0262319
39.48;181;147.078;33.9218;0.120106;0.0273487
39.54;203;146.682;56.3182;0.134705;0.0454053
39.6;196;146.275;49.7254;0.13006;0.04009
39.66;179;145.857;33.1433;0.118779;0.0267211
39.72;173;145.428;27.5716;0.114798;0.022229
39.78;184;144.99;39.01;0.122097;0.0314509
39.84;176;144.542;31.4582;0.116788;0.0253625
39.9;168;144.084;23.916;0.11148;0.0192818
39.96;147;143.617;3.38309;0.0975448;0.00272754
40.02;175;143.141;31.8592;0.116125;0.0256858
40.08;167;142.656;24.344;0.110816;0.0196268
40.14;158;142.163;15.8371;0.104844;0.0127684
40.2;154;141.662;12.3384;0.10219;0.00994759
40.26;178;141.152;36.8475;0.118115;0.0297075
40.32;168;140.636;27.364;0.11148;0.0220617
40.38;182;140.112;41.8877;0.12077;0.0337711
40.44;164;139.582;24.4182;0.108825;0.0196867
40.5;172;139.045;32.9552;0.114134;0.0265694
40.56;140;138.502;1.4983;0.0928998;0.00120797
40.62;159;137.953;21.0472;0.105508;0.0169688
40.68;168;137.399;30.6015;0.11148;0.0246718
40.74;171;136.839;34.1608;0.11347;0.0275414
40.8;185;136.275;48.7249;0.12276;0.0392834
40.86;189;135.707;53.2932;0.125415;0.0429665
40.92;181;135.135;45.8655;0.120106;0.036978
40.98;151;134.559;16.4412;0.100199;0.0132554
41.04;146;133.98;12.0201;0.0968812;0.00969098
41.1;151;133.398;17.6018;0.100199;0.014191
41.16;142;132.814;9.18577;0.0942269;0.00740583
41.22;166;132.228;33.7718;0.110153;0.0272277
41.28;163;131.641;31.3593;0.108162;0.0252828
41.34;160;131.052;28.9481;0.106171;0.0233388
41.4;149;130.462;18.5377;0.0988719;0.0149456
41.46;166;129.872;36.1277;0.110153;0.0291272
41.52;155;129.282;25.7177;0.102853;0.0207344
41.58;150;128.693;21.3073;0.0995355;0.0171786
41.64;157;128.104;28.896;0.10418;0.0232968
41.7;146;127.517;18.4835;0.0968812;0.0149019
41.76;149;126.931;22.0692;0.0988719;0.0177928
41.82;141;126.347;14.6528;0.0935634;0.0118135
41.88;134;125.766;8.23381;0.0889184;0.00663833
41.94;153;125.188;27.8118;0.101526;0.0224226
42;161;124.614;36.3862;0.106835;0.0293356
42.06;133;124.043;8.95665;0.0882548;0.00722111
42.12;136;123.477;12.5227;0.0902455;0.0100961
42.18;133;122.916;10.0838;0.0882548;0.00812986
42.24;142;122.36;19.6396;0.0942269;0.015834
42.3;126;121.81;4.18981;0.0836098;0.00337795
42.36;138;121.266;16.7343;0.0915727;0.0134917
42.42;144;120.727;23.2731;0.0955541;0.0187634
42.48;133;120.194;12.8065;0.0882548;0.0103249
42.54;146;119.665;26.3345;0.0968812;0.0212316
42.6;145;119.142;25.8575;0.0962177;0.0208471
42.66;144;118.624;25.3756;0.0955541;0.0204585
42.72;145;118.111;26.8889;0.0962177;0.0216786
42.78;141;117.602;23.3977;0.0935634;0.0188639
42.84;142;117.098;24.9021;0.0942269;0.0200767
42.9;156;116.598;39.4021;0.103517;0.0317671
42.96;120;116.102;3.89813;0.0796284;0.00314278
43.02;153;115.61;37.3901;0.101526;0.030145
43.08;145;115.122;29.8783;0.0962177;0.0240887
43.14;167;114.637;52.3628;0.110816;0.0422164
43.2;158;114.156;43.8437;0.104844;0.035348
43.26;167;113.679;53.3211;0.110816;0.042989
43.32;175;113.205;61.7952;0.116125;0.049821
43.38;176;112.734;63.2659;0.116788;0.0510068
43.44;160;112.267;47.7335;0.106171;0.0384841
43.5;176;111.802;64.1979;0.116788;0.0517581
43.56;157;111.341;45.6592;0.10418;0.0368117
43.62;142;110.883;31.1174;0.0942269;0.0250877
43.68;153;110.427;42.5725;0.101526;0.0343232
43.74;129;109.975;19.0246;0.0856005;0.0153382
43.8;146;109.526;36.4737;0.0968812;0.0294061
43.86;137;109.08;27.9197;0.0909091;0.0225096
43.92;133;108.637;24.3626;0.0882548;0.0196418
43.98;158;108.198;49.8025;0.104844;0.0401521
44.04;134;107.761;26.2392;0.0889184;0.0211548
44.1;149;107.327;41.6728;0.0988719;0.0335978
44.16;141;106.897;34.1032;0.0935634;0.027495
44.22;108;106.47;1.53043;0.0716656;0.00123388
44.28;137;106.046;30.9543;0.0909091;0.0249563
44.34;138;105.625;32.3749;0.0915727;0.0261015
44.4;139;105.208;33.7919;0.0922362;0.027244
44.46;122;104.795;17.2055;0.0809555;0.0138716
44.52;128;104.385;23.6154;0.084937;0.0190394
44.58;131;103.978;27.0217;0.0869277;0.0217856
44.64;141;103.576;37.4241;0.0935634;0.0301724
44.7;136;103.177;32.8226;0.0902455;0.0264625
44.76;133;102.783;30.2171;0.0882548;0.0243618
44.82;131;102.393;28.6073;0.0869277;0.023064
44.88;108;102.007;5.99334;0.0716656;0.004832
44.94;128;101.625;26.3749;0.084937;0.0212642
45;135;101.248;33.7519;0.089582;0.0272117
45.06;134;100.876;33.1242;0.0889184;0.0267057
45.12;124;100.508;23.4916;0.0822827;0.0189396
45.18;146;100.146;45.854;0.0968812;0.0369688
45.24;120;99.7888;20.2112;0.0796284;0.0162948
45.3;136;99.437;36.563;0.0902455;0.0294781
45.36;129;99.0908;29.9092;0.0856005;0.0241137
45.42;122;98.7503;23.2497;0.0809555;0.0187446
45.48;129;98.4157;30.5843;0.0856005;0.0246579
45.54;115;98.0873;16.9127;0.0763106;0.0136355
45.6;113;97.7652;15.2348;0.0749834;0.0122827
45.66;113;97.4497;15.5503;0.0749834;0.0125371
45.72;116;97.141;18.859;0.0769741;0.0152047
45.78;122;96.8393;25.1607;0.0809555;0.0202853
45.84;128;96.5449;31.4551;0.084937;0.02536
45.9;118;96.2579;21.7421;0.0783013;0.0175291
45.96;110;95.9786;14.0214;0.0729927;0.0113044
46.02;112;95.7073;16.2927;0.0743198;0.0131356
46.08;120;95.4443;24.5557;0.0796284;0.0197975
46.14;87;95.1897;-8.1897;0.0577306;-0.00660277
46.2;117;94.9438;22.0562;0.0776377;0.0177824
46.26;114;94.7063;19.2937;0.075647;0.0155551
46.32;128;94.4771;33.5229;0.084937;0.0270271
46.38;122;94.2558;27.7442;0.0809555;0.0223682
46.44;117;94.0422;22.9578;0.0776377;0.0185092
46.5;110;93.8361;16.1639;0.0729927;0.0130318
46.56;116;93.6373;22.3627;0.0769741;0.0180295
46.62;108;93.4455;14.5545;0.0716656;0.0117343
46.68;119;93.2604;25.7396;0.0789648;0.020752
46.74;105;93.082;11.918;0.0696749;0.00960862
46.8;113;92.91;20.09;0.0749834;0.0161972
46.86;113;92.7441;20.2559;0.0749834;0.0163309
46.92;106;92.5841;13.4159;0.0703384;0.0108163
46.98;110;92.4299;17.5701;0.0729927;0.0141655
47.04;113;92.2813;20.7187;0.0749834;0.016704
47.1;110;92.138;17.862;0.0729927;0.0144008
47.16;109;92;17;0.0723291;0.0137059
47.22;100;91.8669;8.13309;0.066357;0.00655713
47.28;114;91.7387;22.2613;0.075647;0.0179477
47.34;107;91.6151;15.3849;0.071002;0.0124038
47.4;103;91.496;11.504;0.0683477;0.00927488
47.46;104;91.3811;12.6189;0.0690113;0.0101737
47.52;106;91.2705;14.7295;0.0703384;0.0118753
47.58;125;91.1638;33.8362;0.0829463;0.0272797
47.64;109;91.061;17.939;0.0723291;0.014463
47.7;115;90.9618;24.0382;0.0763106;0.0193803
47.76;118;90.8661;27.1339;0.0783013;0.0218761
47.82;121;90.7738;30.2262;0.080292;0.0243692
47.88;118;90.6848;27.3152;0.0783013;0.0220223
47.94;108;90.599;17.401;0.0716656;0.0140292
48;113;90.5161;22.4839;0.0749834;0.0181272
48.06;120;90.4361;29.5639;0.0796284;0.0238352
48.12;99;90.3589;8.64108;0.0656934;0.00696669
48.18;112;90.2844;21.7156;0.0743198;0.0175077
48.24;116;90.2125;25.7875;0.0769741;0.0207906
48.3;105;90.143;14.857;0.0696749;0.0119781
48.36;112;90.076;21.924;0.0743198;0.0176758
48.42;100;90.0112;9.98878;0.066357;0.00805323
48.48;110;89.9487;20.0513;0.0729927;0.0161659
48.54;99;89.8883;9.11168;0.0656934;0.0073461
48.6;109;89.83;19.17;0.0723291;0.0154554
48.66;123;89.7737;33.2263;0.0816191;0.026788
48.72;99;89.7192;9.28076;0.0656934;0.00748241
48.78;95;89.6667;5.33333;0.0630392;0.00429988
48.84;118;89.6159;28.3841;0.0783013;0.0228841
48.9;103;89.5668;13.4332;0.0683477;0.0108302
48.96;99;89.5195;9.48052;0.0656934;0.00764346
49.02;92;89.4738;2.52624;0.0610484;0.00203673
49.08;99;89.4296;9.57036;0.0656934;0.0077159
49.14;110;89.3871;20.6129;0.0729927;0.0166187
49.2;100;89.3461;10.6539;0.066357;0.0085895
49.26;108;89.3066;18.6934;0.0716656;0.0150712
49.32;101;89.2686;11.7314;0.0670206;0.00945823
49.38;93;89.232;3.76799;0.061712;0.00303786
49.44;89;89.1969;-0.19694;0.0590577;-0.000158778
49.5;93;89.1633;3.83668;0.061712;0.00309324
49.56;94;89.1311;4.86887;0.0623756;0.00392542
49.62;113;89.1004;23.8996;0.0749834;0.0192686
49.68;98;89.071;8.92899;0.0650299;0.00719881
49.74;116;89.043;26.957;0.0769741;0.0217335
49.8;98;89.0165;8.98353;0.0650299;0.00724278
49.86;108;88.9913;19.0087;0.0716656;0.0153254
49.92;103;88.9675;14.0325;0.0683477;0.0113134
49.98;108;88.9451;19.0549;0.0716656;0.0153626
50.04;107;88.9241;18.0759;0.071002;0.0145733
50.1;88;88.9046;-0.904568;0.0583942;-0.000729288
50.16;106;88.8865;17.1135;0.0703384;0.0137974
50.22;102;88.8698;13.1302;0.0676841;0.010586
50.28;98;88.8544;9.14556;0.0650299;0.00737341
50.34;95;88.8405;6.15951;0.0630392;0.00496597
50.4;108;88.8279;19.1721;0.0716656;0.0154571
50.46;92;88.8166;3.1834;0.0610484;0.00256655
50.52;113;88.8066;24.1934;0.0749834;0.0195054
50.58;109;88.7979;20.2021;0.0723291;0.0162875
50.64;102;88.7904;13.2096;0.0676841;0.0106499
50.7;119;88.7841;30.2159;0.0789648;0.0243609
50.76;112;88.7789;23.2211;0.0743198;0.0187215
50.82;111;88.7748;22.2252;0.0736563;0.0179186
50.88;115;88.7717;26.2283;0.0763106;0.021146
50.94;115;88.7696;26.2304;0.0763106;0.0211477
51;126;88.7685;37.2315;0.0836098;0.030017
51.06;100;88.7684;11.2316;0.066357;0.0090552
51.12;113;88.7692;24.2308;0.0749834;0.0195355
51.18;110;88.7708;21.2292;0.0729927;0.0171156
51.24;109;88.7728;20.2272;0.0723291;0.0163077
51.3;88;88.7753;-0.775287;0.0583942;-0.000625058
51.36;113;88.7779;24.2221;0.0749834;0.0195285
51.42;123;88.7806;34.2194;0.0816191;0.0275886
51.48;117;88.783;28.217;0.0776377;0.0227493
51.54;120;88.7851;31.2149;0.0796284;0.0251663
51.6;117;88.7865;28.2135;0.0776377;0.0227465
51.66;138;88.7872;49.2128;0.0915727;0.0396768
51.72;128;88.7869;39.2131;0.084937;0.0316147
51.78;131;88.7854;42.2146;0.0869277;0.0340346
51.84;123;88.7827;34.2173;0.0816191;0.027587
51.9;124;88.7785;35.2215;0.0822827;0.0283966
51.96;129;88.7728;40.2272;0.0856005;0.0324323
52.02;121;88.7653;32.2347;0.080292;0.0259885
52.08;115;88.7561;26.2439;0.0763106;0.0211586
52.14;127;88.7449;38.2551;0.0842734;0.0308423
52.2;102;88.7317;13.2683;0.0676841;0.0106973
52.26;109;88.7164;20.2836;0.0723291;0.0163532
52.32;104;88.6989;15.3011;0.0690113;0.0123362
52.38;119;88.679;30.321;0.0789648;0.0244456
52.44;107;88.6568;18.3432;0.071002;0.0147888
52.5;112;88.6322;23.3678;0.0743198;0.0188398
52.56;105;88.605;16.395;0.0696749;0.0132181
52.62;102;88.5753;13.4247;0.0676841;0.0108234
52.68;109;88.543;20.457;0.0723291;0.016493
52.74;127;88.508;38.492;0.0842734;0.0310334
52.8;125;88.4702;36.5298;0.0829463;0.0294513
52.86;121;88.4297;32.5703;0.080292;0.0262591
52.92;118;88.3865;29.6135;0.0783013;0.0238753
52.98;130;88.3403;41.6597;0.0862641;0.0335872
53.04;117;88.2914;28.7086;0.0776377;0.0231457
53.1;123;88.2396;34.7604;0.0816191;0.0280248
53.16;112;88.185;23.815;0.0743198;0.0192003
53.22;103;88.1275;14.8725;0.0683477;0.0119906
53.28;120;88.0672;31.9328;0.0796284;0.0257451
53.34;100;88.0041;11.9959;0.066357;0.00967143
53.4;116;87.9382;28.0618;0.0769741;0.0226242
53.46;110;87.8695;22.1305;0.0729927;0.0178422
53.52;111;87.7981;23.2019;0.0736563;0.018706
53.58;114;87.724;26.276;0.075647;0.0211845
53.64;118;87.6472;30.3528;0.0783013;0.0244713
53.7;107;87.5679;19.4321;0.071002;0.0156667
53.76;114;87.486;26.514;0.075647;0.0213764
53.82;108;87.4016;20.5984;0.0716656;0.016607
53.88;116;87.3148;28.6852;0.0769741;0.0231268
53.94;125;87.2257;37.7743;0.0829463;0.0304547
54;118;87.1343;30.8657;0.0783013;0.0248848
54.06;113;87.0408;25.9592;0.0749834;0.020929
54.12;134;86.9452;47.0548;0.0889184;0.0379369
54.18;117;86.8477;30.1523;0.0776377;0.0243096
54.24;114;86.7483;27.2517;0.075647;0.0219711
54.3;112;86.6472;25.3528;0.0743198;0.0204402
54.36;122;86.5444;35.4556;0.0809555;0.0285853
54.42;111;86.4402;24.5598;0.0736563;0.0198008
54.48;99;86.3346;12.6654;0.0656934;0.0102112
54.54;101;86.2278;14.7722;0.0670206;0.0119097
54.6;108;86.12;21.88;0.0716656;0.0176403
54.66;110;86.0112;23.9888;0.0729927;0.0193404
54.72;106;85.9017;20.0983;0.0703384;0.0162038
54.78;104;85.7917;18.2083;0.0690113;0.0146801
54.84;82;85.6812;-3.68116;0.0544127;-0.00296786
54.9;106;85.5704;20.4296;0.0703384;0.0164709
54.96;126;85.4593;40.5407;0.0836098;0.032685
55.02;116;85.3479;30.6521;0.0769741;0.0247126
55.08;124;85.2361;38.7639;0.0822827;0.0312526
55.14;94;85.1239;8.87613;0.0623756;0.00715619
55.2;106;85.0112;20.9888;0.0703384;0.0169218
55.26;120;84.898;35.102;0.0796284;0.0283002
55.32;115;84.7844;30.2156;0.0763106;0.0243607
55.38;104;84.6702;19.3298;0.0690113;0.0155842
55.44;115;84.5556;30.4444;0.0763106;0.0245451
55.5;96;84.4405;11.5595;0.0637027;0.00931963
55.56;114;84.3248;29.6752;0.075647;0.023925
55.62;107;84.2087;22.7913;0.071002;0.018375
55.68;93;84.0921;8.90786;0.061712;0.00718177
55.74;96;83.9751;12.0249;0.0637027;0.00969479
55.8;109;83.8577;25.1423;0.0723291;0.0202704
55.86;106;83.74;22.26;0.0703384;0.0179467
55.92;106;83.6219;22.3781;0.0703384;0.0180419
55.98;88;83.5035;4.49653;0.0583942;0.00362523
56.04;130;83.3849;46.6151;0.0862641;0.0375824
56.1;90;83.266;6.73396;0.0597213;0.00542911
56.16;116;83.1471;32.8529;0.0769741;0.026487
56.22;110;83.0279;26.9721;0.0729927;0.0217456
56.28;105;82.9087;22.0913;0.0696749;0.0178106
56.34;106;82.7895;23.2105;0.0703384;0.018713
56.4;114;82.6702;31.3298;0.075647;0.025259
56.46;97;82.551;14.449;0.0643663;0.0116492
56.52;99;82.4319;16.5681;0.0656934;0.0133577
56.58;99;82.3129;16.6871;0.0656934;0.0134536
56.64;99;82.1942;16.8058;0.0656934;0.0135493
56.7;99;82.0758;16.9242;0.0656934;0.0136448
56.76;86;81.9577;4.04233;0.057067;0.00325904
56.82;109;81.84;27.16;0.0723291;0.0218971
56.88;94;81.7229;12.2771;0.0623756;0.00989814
56.94;85;81.6064;3.39362;0.0564035;0.00273603
57;116;81.4905;34.5095;0.0769741;0.0278225
57.06;86;81.3753;4.62473;0.057067;0.00372858
57.12;113;81.2607;31.7393;0.0749834;0.0255891
57.18;107;81.1467;25.8533;0.071002;0.0208437
57.24;95;81.0333;13.9667;0.0630392;0.0112603
57.3;107;80.9206;26.0794;0.071002;0.0210259
57.36;101;80.8085;20.1915;0.0670206;0.0162789
57.42;101;80.6971;20.3029;0.0670206;0.0163688
57.48;93;80.5864;12.4136;0.061712;0.0100082
57.54;97;80.4763;16.5237;0.0643663;0.0133219
57.6;93;80.367;12.633;0.061712;0.0101851
57.66;88;80.2584;7.74161;0.0583942;0.00624151
57.72;92;80.1506;11.8494;0.0610484;0.00955333
57.78;112;80.0436;31.9564;0.0743198;0.0257641
57.84;107;79.9375;27.0625;0.071002;0.0218186
57.9;95;79.8323;15.1677;0.0630392;0.0122286
57.96;96;79.7281;16.2719;0.0637027;0.0131189
58.02;91;79.6249;11.3751;0.0603849;0.00917092
58.08;93;79.5228;13.4772;0.061712;0.0108657
58.14;93;79.4219;13.5781;0.061712;0.0109471
58.2;92;79.3221;12.6779;0.0610484;0.0102212
58.26;86;79.2237;6.77627;0.057067;0.00546322
58.32;103;79.1267;23.8733;0.0683477;0.0192473
58.38;94;79.0311;14.9689;0.0623756;0.0120683
58.44;88;78.9371;9.06291;0.0583942;0.00730677
58.5;98;78.8446;19.1554;0.0650299;0.0154436
58.56;97;78.7536;18.2464;0.0643663;0.0147108
58.62;92;78.6639;13.3361;0.0610484;0.0107519
58.68;87;78.5756;8.42443;0.0577306;0.00679201
58.74;107;78.4884;28.5116;0.071002;0.0229869
58.8;106;78.4024;27.5976;0.0703384;0.02225
58.86;87;78.3174;8.68264;0.0577306;0.00700019
58.92;90;78.2333;11.7667;0.0597213;0.00948661
58.98;95;78.1502;16.8498;0.0630392;0.0135847
59.04;98;78.068;19.932;0.0650299;0.0160697
59.1;94;77.9866;16.0134;0.0623756;0.0129105
59.16;95;77.9059;17.0941;0.0630392;0.0137818
59.22;104;77.8259;26.1741;0.0690113;0.0211023
59.28;90;77.7466;12.2534;0.0597213;0.00987905
59.34;110;77.6679;32.3321;0.0729927;0.0260671
59.4;106;77.5898;28.4102;0.0703384;0.0229051
59.46;101;77.5123;23.4877;0.0670206;0.0189365
59.52;101;77.4353;23.5647;0.0670206;0.0189985
59.58;104;77.3589;26.6411;0.0690113;0.0214788
59.64;103;77.283;25.717;0.0683477;0.0207338
59.7;102;77.2076;24.7924;0.0676841;0.0199883
59.76;99;77.1328;21.8672;0.0656934;0.01763
59.82;101;77.0584;23.9416;0.0670206;0.0193024
59.88;94;76.9846;17.0154;0.0623756;0.0137183
59.94;79;76.9111;2.0889;0.052422;0.00168413
60;83;76.838;6.16203;0.0550763;0.004968
60.06;107;76.7651;30.2349;0.071002;0.0243762
60.12;81;76.6925;4.30746;0.0537492;0.0034728
60.18;105;76.6201;28.3799;0.0696749;0.0228806
60.24;92;76.5479;15.4521;0.0610484;0.0124579
60.3;114;76.4758;37.5242;0.075647;0.0302531
60.36;91;76.4038;14.5962;0.0603849;0.0117679
60.42;96;76.3318;19.6682;0.0637027;0.015857
60.48;83;76.2599;6.74009;0.0550763;0.00543405
60.54;79;76.188;2.81196;0.052422;0.00226708
60.6;98;76.1162;21.8838;0.0650299;0.0176434
60.66;82;76.0443;5.95566;0.0544127;0.00480162
60.72;82;75.9725;6.0275;0.0544127;0.00485954
60.765;96;75.9186;20.0814;0.0637027;0.0161902