File: Test_XRD/01_Sample 1_XRD001/normal/01_Sample 1_XRD001_basecorr_normal.csv
4.5;169;150.607;18.393;0.0233684;0.00260206
4.56;180;150.946;29.0541;0.0248894;0.0041103
4.62;185;151.285;33.7153;0.0255808;0.00476971
4.68;189;151.624;37.3765;0.0261338;0.00528766
4.74;161;151.962;9.03759;0.0222622;0.00127855
4.8;159;152.301;6.69867;0.0219856;0.000947662
4.86;151;152.64;-1.64034;0.0208794;-0.000232059
4.92;158;152.979;5.02056;0.0218473;0.00071026
4.98;171;153.319;17.6814;0.0236449;0.00250139
5.04;183;153.658;29.3423;0.0253042;0.00415106
5.1;191;153.997;37.0032;0.0264104;0.00523486
5.16;203;154.336;48.6643;0.0280697;0.00688455
5.22;202;154.674;47.3256;0.0279314;0.00669516
5.28;175;155.013;19.987;0.024198;0.00282757
5.34;167;155.351;11.6487;0.0230918;0.00164795
5.4;187;155.689;31.3107;0.0258573;0.00442953
5.46;179;156.027;22.9729;0.0247511;0.00324998
5.52;166;156.365;9.63538;0.0229535;0.00136312
5.58;182;156.702;25.2982;0.0251659;0.00357894
5.64;193;157.039;35.9612;0.0266869;0.00508744
5.7;172;157.375;14.6246;0.0237832;0.00206895
5.76;173;157.712;15.2883;0.0239215;0.00216284
5.82;171;158.048;12.9523;0.0236449;0.00183236
5.88;171;158.383;12.6166;0.0236449;0.00178487
5.94;161;158.719;2.28118;0.0222622;0.000322719
6;162;159.054;2.94611;0.0224004;0.000416787
6.06;176;159.388;16.6118;0.0243363;0.00235008
6.12;165;159.721;5.27933;0.0228153;0.000746868
6.18;164;160.05;3.94986;0.022677;0.000558787
6.24;183;160.375;22.6247;0.0253042;0.00320072
6.3;178;160.695;17.305;0.0246128;0.00244815
6.36;156;161.008;-5.00782;0.0215708;-0.000708457
6.42;179;161.312;17.6875;0.0247511;0.00250226
6.48;173;161.607;11.3929;0.0239215;0.00161176
6.54;183;161.889;21.1107;0.0253042;0.00298653
6.6;190;162.156;27.8435;0.0262721;0.00393903
6.66;205;162.406;42.5942;0.0283462;0.00602581
6.72;202;162.635;39.3653;0.0279314;0.00556902
6.78;228;162.84;65.1598;0.0315265;0.00921817
6.84;321;163.02;157.98;0.0443861;0.0223495
6.9;458;163.171;294.829;0.0633296;0.0417096
6.96;657;163.29;493.71;0.0908462;0.0698453
7.02;1014;163.376;850.624;0.14021;0.120338
7.08;1488;163.425;1324.57;0.205752;0.187388
7.14;2614;163.436;2450.56;0.361449;0.346682
7.2;5086;163.406;4922.59;0.703263;0.696401
7.26;4340;163.335;4176.67;0.600111;0.590874
7.32;480;163.222;316.778;0.0663717;0.0448147
7.38;319;163.068;155.932;0.0441095;0.0220597
7.44;313;162.875;150.125;0.0432799;0.0212382
7.5;385;162.644;222.356;0.0532356;0.0314568
7.56;577;162.376;414.624;0.0797843;0.058657
7.62;796;162.072;633.928;0.110066;0.0896819
7.68;1265;161.735;1103.26;0.174917;0.156079
7.74;2265;161.365;2103.63;0.313191;0.297602
7.8;4695;160.965;4534.04;0.649198;0.641431
7.86;742;160.536;581.464;0.1026;0.0822598
7.92;324;160.083;163.917;0.0448009;0.0231893
7.98;260;159.609;100.391;0.0359513;0.0142023
8.04;187;159.118;27.882;0.0258573;0.00394448
8.1;178;158.613;19.3868;0.0246128;0.00274266
8.16;186;158.099;27.9014;0.025719;0.00394722
8.22;162;157.578;4.42213;0.0224004;0.000625599
8.28;151;157.054;-6.05424;0.0208794;-0.000856495
8.34;162;156.531;5.4691;0.0224004;0.000773716
8.4;164;156.011;7.98927;0.022677;0.00113024
8.46;164;155.496;8.50359;0.022677;0.00120301
8.52;157;154.99;2.0098;0.0217091;0.000284327
8.58;163;154.494;8.50612;0.0225387;0.00120336
8.64;170;154.009;15.9914;0.0235066;0.00226231
8.7;170;153.535;16.465;0.0235066;0.00232931
8.76;161;153.074;7.92649;0.0222622;0.00112136
8.82;170;152.625;17.3751;0.0235066;0.00245807
8.88;172;152.19;19.8104;0.0237832;0.00280259
8.94;164;151.768;12.2318;0.022677;0.00173043
9;156;151.361;4.63859;0.0215708;0.000656223
9.06;185;150.97;34.0304;0.0255808;0.00481429
9.12;152;150.593;1.40683;0.0210177;0.000199024
9.18;184;150.232;33.7675;0.0254425;0.0047771
9.24;165;149.888;15.1121;0.0228153;0.00213792
9.3;149;149.56;-0.559722;0.0206029;-7.91841e-05
9.36;150;149.248;0.751586;0.0207412;0.000106327
9.42;149;148.954;0.045742;0.0206029;6.47114e-06
9.48;153;148.677;4.32274;0.021156;0.000611539
9.54;155;148.417;6.58317;0.0214325;0.000931322
9.6;178;148.172;29.8277;0.0246128;0.00421973
9.66;162;147.943;14.057;0.0224004;0.00198865
9.72;169;147.728;21.2718;0.0233684;0.00300933
9.78;209;147.527;61.4727;0.0288993;0.00869656
9.84;165;147.34;17.6604;0.0228153;0.00249842
9.9;228;147.164;80.8356;0.0315265;0.0114358
9.96;249;147.001;101.999;0.0344303;0.0144298
10.02;311;146.849;164.151;0.0430033;0.0232225
10.08;481;146.708;334.292;0.06651;0.0472924
10.14;492;146.577;345.423;0.068031;0.0488671
10.2;231;146.455;84.5449;0.0319414;0.0119606
10.26;239;146.343;92.6572;0.0330476;0.0131082
10.32;245;146.239;98.7606;0.0338772;0.0139717
10.38;306;146.145;159.855;0.0423119;0.0226148
10.44;203;146.058;56.9421;0.0280697;0.00805561
10.5;189;145.979;43.0207;0.0261338;0.00608615
10.56;205;145.908;59.0916;0.0283462;0.00835971
10.62;253;145.845;107.155;0.0349834;0.0151593
10.68;317;145.789;171.211;0.043833;0.0242213
10.74;314;145.74;168.26;0.0434181;0.0238039
10.8;393;145.697;247.303;0.0543418;0.034986
10.86;476;145.662;330.338;0.0658186;0.046733
10.92;212;145.633;66.3671;0.0293142;0.00938897
10.98;248;145.611;102.389;0.034292;0.014485
11.04;190;145.596;44.4043;0.0262721;0.00628189
11.1;182;145.587;36.4126;0.0251659;0.0051513
11.16;177;145.586;31.4139;0.0244746;0.00444413
11.22;170;145.592;24.4081;0.0235066;0.00345302
11.28;190;145.605;44.395;0.0262721;0.00628057
11.34;190;145.625;44.3746;0.0262721;0.00627768
11.4;167;145.653;21.3467;0.0230918;0.00301992
11.46;159;145.689;13.3112;0.0219856;0.00188314
11.52;154;145.732;8.26808;0.0212942;0.00116969
11.58;181;145.783;35.2175;0.0250277;0.00498222
11.64;162;145.841;16.1594;0.0224004;0.00228608
11.7;148;145.906;2.09402;0.0204646;0.000296242
11.76;177;145.979;31.0215;0.0244746;0.00438862
11.82;166;146.058;19.9423;0.0229535;0.00282124
11.88;177;146.143;30.857;0.0244746;0.00436535
11.94;174;146.234;27.766;0.0240597;0.00392806
12;165;146.33;18.6699;0.0228153;0.00264124
12.06;173;146.43;26.5696;0.0239215;0.0037588
12.12;193;146.534;46.4657;0.0266869;0.00657352
12.18;246;146.641;99.3592;0.0340155;0.0140564
12.24;248;146.749;101.251;0.034292;0.014324
12.3;185;146.859;38.1412;0.0255808;0.00539584
12.36;155;146.969;8.03121;0.0214325;0.00113618
12.42;162;147.078;14.9216;0.0224004;0.00211096
12.48;184;147.187;36.8129;0.0254425;0.00520793
12.54;171;147.294;23.7061;0.0236449;0.0033537
12.6;215;147.398;67.6017;0.029729;0.00956363
12.66;317;147.5;169.5;0.043833;0.0239793
12.72;321;147.597;173.403;0.0443861;0.0245314
12.78;431;147.69;283.31;0.0595962;0.04008
12.84;785;147.778;637.222;0.108545;0.090148
12.9;468;147.86;320.14;0.0647124;0.0452903
12.96;244;147.936;96.0642;0.0337389;0.0135902
13.02;192;148.006;43.9944;0.0265487;0.0062239
13.08;197;148.069;48.9311;0.02724;0.0069223
13.14;186;148.125;37.8746;0.025719;0.00535813
13.2;232;148.175;83.8252;0.0320796;0.0118588
13.26;255;148.217;106.783;0.03526;0.0151066
13.32;198;148.252;49.7483;0.0273783;0.00703791
13.38;328;148.279;179.721;0.045354;0.0254252
13.44;517;148.298;368.702;0.0714878;0.0521604
13.5;337;148.309;188.691;0.0465985;0.0266941
13.56;292;148.313;143.687;0.0403761;0.0203275
13.62;483;148.308;334.692;0.0667865;0.0473489
13.68;979;148.296;830.704;0.135371;0.11752
13.74;317;148.276;168.724;0.043833;0.0238694
13.8;211;148.249;62.7511;0.0291759;0.00887741
13.86;191;148.215;42.7852;0.0264104;0.00605284
13.92;185;148.174;36.8259;0.0255808;0.00520977
13.98;146;148.127;-2.12739;0.0201881;-0.000300962
14.04;169;148.075;20.925;0.0233684;0.00296026
14.1;157;148.017;8.98285;0.0217091;0.00127081
14.16;221;147.954;73.0462;0.0305586;0.0103339
14.22;185;147.885;37.1149;0.0255808;0.00525065
14.28;181;147.811;33.1889;0.0250277;0.00469525
14.34;214;147.732;66.2682;0.0295907;0.00937498
14.4;232;147.647;84.3526;0.0320796;0.0119334
14.46;225;147.558;77.4421;0.0311117;0.0109558
14.52;243;147.464;95.5364;0.0336007;0.0135156
14.58;168;147.365;20.6354;0.0232301;0.0029193
14.64;136;147.261;-11.261;0.0188053;-0.00159309
14.7;147;147.153;-0.15292;0.0203263;-2.16337e-05
14.76;178;147.04;30.9601;0.0246128;0.00437993
14.82;162;146.921;15.0786;0.0224004;0.00213317
14.88;217;146.797;70.2032;0.0300055;0.00993167
14.94;343;146.665;196.335;0.0474281;0.0277755
15;582;146.527;435.473;0.0804757;0.0616065
15.06;1055;146.38;908.62;0.145879;0.128543
15.12;559;146.225;412.775;0.0772954;0.0583954
15.18;243;146.062;96.9385;0.0336007;0.0137139
15.24;214;145.89;68.1104;0.0295907;0.0096356
15.3;214;145.709;68.2911;0.0295907;0.00966115
15.36;303;145.52;157.48;0.0418971;0.0222788
15.42;471;145.322;325.678;0.0651272;0.0460738
15.48;218;145.115;72.885;0.0301438;0.0103111
15.54;191;144.9;46.1003;0.0264104;0.00652183
15.6;224;144.676;79.3242;0.0309735;0.011222
15.66;208;144.444;63.5564;0.0287611;0.00899133
15.72;292;144.203;147.797;0.0403761;0.0209088
15.78;496;143.955;352.045;0.0685841;0.0498039
15.84;494;143.698;350.302;0.0683075;0.0495573
15.9;400;143.434;256.566;0.0553097;0.0362964
15.96;551;143.163;407.837;0.0761892;0.0576968
16.02;415;142.885;272.115;0.0573838;0.0384962
16.08;177;142.601;34.3991;0.0244746;0.00486645
16.14;197;142.311;54.6889;0.02724;0.00773686
16.2;184;142.016;41.9837;0.0254425;0.00593944
16.26;205;141.717;63.2828;0.0283462;0.00895263
16.32;278;141.415;136.585;0.0384403;0.0193228
16.38;570;141.109;428.891;0.0788164;0.0606753
16.44;1363;140.801;1222.2;0.188468;0.172905
16.5;1402;140.492;1261.51;0.193861;0.178466
16.56;861;140.182;720.818;0.119054;0.101974
16.62;1132;139.874;992.126;0.156527;0.140356
16.68;417;139.568;277.432;0.0576604;0.0392484
16.74;196;139.267;56.7326;0.0271018;0.00802597
16.8;185;138.973;46.0265;0.0255808;0.00651139
16.86;224;138.688;85.3117;0.0309735;0.0120691
16.92;219;138.414;80.5861;0.0302821;0.0114005
16.98;264;138.152;125.848;0.0365044;0.0178037
17.04;370;137.906;232.094;0.0511615;0.0328344
17.1;695;137.676;557.324;0.0961007;0.0788447
17.16;325;137.466;187.534;0.0449392;0.0265305
17.22;186;137.277;48.7234;0.025719;0.00689291
17.28;153;137.111;15.8886;0.021156;0.00224777
17.34;158;136.972;21.0277;0.0218473;0.0029748
17.4;167;136.862;30.1384;0.0230918;0.00426369
17.46;133;136.781;-3.78141;0.0183905;-0.000534957
17.52;128;136.734;-8.73392;0.0176991;-0.00123559
17.58;130;136.72;-6.72032;0.0179757;-0.000950726
17.64;146;136.74;9.26014;0.0201881;0.00131003
17.7;152;136.79;15.2098;0.0210177;0.00215174
17.76;190;136.868;53.1317;0.0262721;0.00751656
17.82;171;136.971;34.0287;0.0236449;0.00481405
17.88;148;137.096;10.9039;0.0204646;0.00154257
17.94;164;137.24;26.76;0.022677;0.00378575
18;140;137.4;2.60023;0.0193584;0.000367855
18.06;183;137.573;45.4274;0.0253042;0.00642662
18.12;313;137.756;175.244;0.0432799;0.0247919
18.18;558;137.946;420.054;0.0771571;0.0594252
18.24;1148;138.14;1009.86;0.158739;0.142865
18.3;1065;138.336;926.664;0.147262;0.131095
18.36;1569;138.531;1430.47;0.216952;0.202369
18.42;1101;138.723;962.277;0.15224;0.136134
18.48;384;138.909;245.091;0.0530973;0.0346731
18.54;306;139.088;166.912;0.0423119;0.023613
18.6;234;139.259;94.7409;0.0323562;0.013403
18.66;263;139.42;123.58;0.0363662;0.0174829
18.72;373;139.569;233.431;0.0515763;0.0330236
18.78;892;139.704;752.296;0.123341;0.106427
18.84;625;139.825;485.175;0.0864215;0.0686378
18.9;470;139.93;330.07;0.0649889;0.046695
18.96;887;140.018;746.982;0.122649;0.105676
19.02;766;140.088;625.912;0.105918;0.088548
19.08;275;140.138;134.862;0.0380254;0.0190789
19.14;232;140.169;91.831;0.0320796;0.0129914
19.2;191;140.179;50.8208;0.0264104;0.00718963
19.26;175;140.168;34.8317;0.024198;0.00492765
19.32;171;140.136;30.8644;0.0236449;0.0043664
19.38;148;140.08;7.91951;0.0204646;0.00112038
19.44;161;140.002;20.9977;0.0222622;0.00297054
19.5;156;139.901;16.0994;0.0215708;0.00227759
19.56;164;139.775;24.2255;0.022677;0.00342719
19.62;181;139.624;41.3764;0.0250277;0.00585353
19.68;187;139.447;47.5528;0.0258573;0.0067273
19.74;278;139.245;138.755;0.0384403;0.0196297
19.8;472;139.016;332.984;0.0652655;0.0471074
19.86;1169;138.76;1030.24;0.161643;0.145748
19.92;1626;138.476;1487.52;0.224834;0.21044
19.98;857;138.164;718.836;0.118501;0.101694
20.04;806;137.825;668.175;0.111449;0.0945269
20.1;501;137.459;363.541;0.0692754;0.0514303
20.16;363;137.066;225.934;0.0501936;0.031963
20.22;282;136.646;145.354;0.0389934;0.0205632
20.28;391;136.202;254.798;0.0540653;0.0360464
20.34;530;135.732;394.268;0.0732854;0.0557771
20.4;383;135.239;247.761;0.0529591;0.0350508
20.46;315;134.723;180.277;0.0435564;0.0255038
20.52;462;134.185;327.815;0.0638827;0.0463761
20.58;691;133.625;557.375;0.0955476;0.0788519
20.64;315;133.046;181.954;0.0435564;0.025741
20.7;258;132.448;125.552;0.0356748;0.0177618
20.76;341;131.833;209.167;0.0471515;0.0295909
20.82;598;131.202;466.798;0.0826881;0.0660381
20.88;676;130.556;545.444;0.0934735;0.0771641
20.94;341;129.896;211.104;0.0471515;0.0298649
21;286;129.226;156.774;0.0395465;0.0221789
21.06;274;128.545;145.455;0.0378872;0.0205776
21.12;378;127.856;250.144;0.0522677;0.0353879
21.18;702;127.161;574.839;0.0970686;0.0813226
21.24;709;126.461;582.539;0.0980365;0.0824119
21.3;443;125.759;317.241;0.0612555;0.0448802
21.36;401;125.056;275.944;0.055448;0.0390378
21.42;367;124.355;242.645;0.0507467;0.034327
21.48;696;123.659;572.341;0.0962389;0.0809693
21.54;793;122.968;670.032;0.109652;0.0947895
21.6;343;122.287;220.713;0.0474281;0.0312243
21.66;265;121.618;143.382;0.0366427;0.0202843
21.72;223;120.962;102.038;0.0308352;0.0144353
21.78;355;120.324;234.676;0.0490874;0.0331996
21.84;505;119.706;385.294;0.0698285;0.0545076
21.9;312;119.111;192.889;0.0431416;0.0272881
21.96;199;118.541;80.4593;0.0275166;0.0113826
22.02;221;118;103;0.0305586;0.0145715
22.08;247;117.49;129.51;0.0341538;0.0183218
22.14;153;117.015;35.9847;0.021156;0.00509077
22.2;144;116.578;27.4217;0.0199115;0.00387936
22.26;117;116.182;0.817911;0.0161781;0.00011571
22.32;124;115.83;8.17015;0.017146;0.00115583
22.38;133;115.525;17.4754;0.0183905;0.00247225
22.44;108;115.269;-7.26949;0.0149336;-0.00102842
22.5;109;115.067;-6.06702;0.0150719;-0.000858303
22.56;116;114.918;1.08189;0.0160398;0.000153055
22.62;120;114.822;5.17786;0.0165929;0.000732513
22.68;129;114.778;14.2219;0.0178374;0.00201197
22.74;121;114.785;6.21519;0.0167312;0.000879264
22.8;125;114.84;10.1595;0.0172843;0.00143727
22.86;148;114.943;33.057;0.0204646;0.00467658
22.92;143;115.09;27.9097;0.0197732;0.00394839
22.98;130;115.28;14.7196;0.0179757;0.00208239
23.04;124;115.511;8.48891;0.017146;0.00120093
23.1;141;115.78;25.2196;0.0194967;0.00356782
23.16;142;116.086;25.9137;0.019635;0.00366601
23.22;129;116.427;12.5733;0.0178374;0.00177874
23.28;154;116.8;37.2004;0.0212942;0.00526275
23.34;218;117.203;100.797;0.0301438;0.0142598
23.4;181;117.635;63.3653;0.0250277;0.0089643
23.46;141;118.093;22.9071;0.0194967;0.00324068
23.52;128;118.575;9.42452;0.0176991;0.00133329
23.58;120;119.081;0.919455;0.0165929;0.000130076
23.64;125;119.606;5.3939;0.0172843;0.000763077
23.7;154;120.15;33.8498;0.0212942;0.00478874
23.76;162;120.711;41.2892;0.0224004;0.0058412
23.82;191;121.286;69.714;0.0264104;0.00986246
23.88;183;121.874;61.1262;0.0253042;0.00864754
23.94;316;122.472;193.528;0.0436947;0.0273784
24;489;123.08;365.92;0.0676162;0.0517668
24.06;304;123.694;180.306;0.0420354;0.0255079
24.12;329;124.313;204.687;0.0454923;0.0289571
24.18;255;124.936;130.064;0.03526;0.0184002
24.24;180;125.561;54.4393;0.0248894;0.00770154
24.3;175;126.185;48.8147;0.024198;0.00690582
24.36;201;126.808;74.1916;0.0277931;0.0104959
24.42;250;127.428;122.572;0.0345686;0.0173403
24.48;365;128.043;236.957;0.0504701;0.0335223
24.54;662;128.652;533.348;0.0915376;0.0754529
24.6;1065;129.253;935.747;0.147262;0.13238
24.66;408;129.844;278.156;0.0564159;0.0393507
24.72;259;130.426;128.574;0.0358131;0.0181894
24.78;347;130.995;216.005;0.0479812;0.0305582
24.84;398;131.553;266.447;0.0550332;0.0376944
24.9;266;132.097;133.903;0.036781;0.0189433
24.96;382;132.626;249.374;0.0528208;0.035279
25.02;337;133.141;203.859;0.0465985;0.02884
25.08;210;133.639;76.361;0.0290376;0.0108028
25.14;161;134.121;26.8794;0.0222622;0.00380264
25.2;185;134.585;50.4153;0.0255808;0.00713227
25.26;191;135.03;55.9695;0.0264104;0.00791802
25.32;196;135.457;60.5426;0.0271018;0.00856498
25.38;178;135.865;42.1354;0.0246128;0.0059609
25.44;222;136.252;85.7485;0.0306969;0.0121309
25.5;307;136.617;170.383;0.0424502;0.0241041
25.56;244;136.962;107.038;0.0337389;0.0151427
25.62;202;137.284;64.7163;0.0279314;0.00915542
25.68;181;137.583;43.4171;0.0250277;0.00614222
25.74;258;137.859;120.141;0.0356748;0.0169964
25.8;496;138.111;357.889;0.0685841;0.0506307
25.86;535;138.338;396.662;0.0739768;0.0561159
25.92;265;138.541;126.459;0.0366427;0.0178902
25.98;209;138.718;70.282;0.0288993;0.00994282
26.04;177;138.87;38.1301;0.0244746;0.00539428
26.1;168;138.996;29.0039;0.0232301;0.00410319
26.16;169;139.096;29.9037;0.0233684;0.00423049
26.22;171;139.17;31.8298;0.0236449;0.00450297
26.28;177;139.218;37.7823;0.0244746;0.00534507
26.34;224;139.238;84.7615;0.0309735;0.0119912
26.4;170;139.232;30.7677;0.0235066;0.00435271
26.46;175;139.199;35.801;0.024198;0.00506477
26.52;187;139.138;47.8616;0.0258573;0.00677099
26.58;355;139.05;215.95;0.0490874;0.0305505
26.64;775;138.935;636.065;0.107163;0.0899843
26.7;556;138.791;417.209;0.0768805;0.0590226
26.76;227;138.62;88.3801;0.0313883;0.0125031
26.82;234;138.421;95.5788;0.0323562;0.0135215
26.88;256;138.195;117.805;0.0353982;0.0166659
26.94;344;137.942;206.058;0.0475664;0.0291511
27;498;137.662;360.338;0.0688606;0.0509771
27.06;411;137.355;273.645;0.0568308;0.0387126
27.12;264;137.022;126.978;0.0365044;0.0179636
27.18;217;136.664;80.3364;0.0300055;0.0113652
27.24;225;136.28;88.7204;0.0311117;0.0125513
27.3;252;135.871;116.129;0.0348451;0.0164288
27.36;578;135.438;442.562;0.0799226;0.0626094
27.42;929;134.981;794.019;0.128457;0.11233
27.48;573;134.501;438.499;0.0792312;0.0620345
27.54;364;133.999;230.001;0.0503319;0.0325383
27.6;459;133.476;325.524;0.0634679;0.0460519
27.66;423;132.933;290.067;0.05849;0.0410359
27.72;419;132.371;286.629;0.0579369;0.0405495
27.78;297;131.791;165.209;0.0410675;0.0233722
27.84;205;131.194;73.8061;0.0283462;0.0104414
27.9;171;130.582;40.418;0.0236449;0.00571794
27.96;138;129.956;8.04382;0.0190819;0.00113796
28.02;163;129.318;33.6822;0.0225387;0.00476503
28.08;169;128.668;40.3318;0.0233684;0.00570575
28.14;167;128.009;38.9913;0.0230918;0.00551611
28.2;156;127.341;28.6592;0.0215708;0.00405443
28.26;154;126.666;27.3343;0.0212942;0.00386699
28.32;199;125.985;73.0151;0.0275166;0.0103295
28.38;173;125.3;47.7002;0.0239215;0.00674816
28.44;208;124.612;83.3882;0.0287611;0.011797
28.5;171;123.922;47.0777;0.0236449;0.0066601
28.56;143;123.233;19.7673;0.0197732;0.00279648
28.62;163;122.545;40.4554;0.0225387;0.00572323
28.68;198;121.859;76.1405;0.0273783;0.0107716
28.74;176;121.179;54.8213;0.0243363;0.00775558
28.8;143;120.504;22.4961;0.0197732;0.00318253
28.86;119;119.836;-0.836463;0.0164546;-0.000118335
28.92;140;119.178;20.822;0.0193584;0.00294569
28.98;174;118.53;55.4701;0.0240597;0.00784736
29.04;217;117.893;99.1066;0.0300055;0.0140206
29.1;155;117.27;37.7302;0.0214325;0.00533771
29.16;148;116.66;31.3399;0.0204646;0.00443366
29.22;123;116.066;6.93416;0.0170077;0.000980978
29.28;140;115.488;24.5119;0.0193584;0.0034677
29.34;141;114.928;26.0718;0.0194967;0.00368838
29.4;149;114.387;34.6126;0.0206029;0.00489665
29.46;129;113.867;15.133;0.0178374;0.00214086
29.52;113;113.368;-0.368331;0.015625;-5.21079e-05
29.58;124;112.892;11.1076;0.017146;0.0015714
29.64;127;112.44;14.5604;0.0175608;0.00205986
29.7;116;112.01;3.98974;0.0160398;0.000564429
29.76;113;111.605;1.39535;0.015625;0.0001974
29.82;120;111.223;8.77716;0.0165929;0.00124171
29.88;114;110.865;3.1355;0.0157633;0.000443579
29.94;158;110.529;47.4709;0.0218473;0.00671572
30;128;110.216;17.7842;0.0176991;0.00251593
30.06;133;109.924;23.0759;0.0183905;0.00326456
30.12;109;109.653;-0.653119;0.0150719;-9.23969e-05
30.18;134;109.402;24.5978;0.0185288;0.00347985
30.24;120;109.171;10.8293;0.0165929;0.00153203
30.3;140;108.958;31.0423;0.0193584;0.00439156
30.36;183;108.763;74.2374;0.0253042;0.0105024
30.42;245;108.585;136.415;0.0338772;0.0192987
30.48;191;108.423;82.5768;0.0264104;0.0116822
30.54;161;108.278;52.7225;0.0222622;0.00745866
30.6;168;108.147;59.853;0.0232301;0.00846741
30.66;164;108.031;55.969;0.022677;0.00791794
30.72;129;107.929;21.071;0.0178374;0.00298092
30.78;117;107.84;9.15974;0.0161781;0.00129583
30.84;120;107.764;12.2357;0.0165929;0.00173099
30.9;132;107.7;24.2996;0.0182522;0.00343766
30.96;125;107.648;17.3518;0.0172843;0.00245477
31.02;209;107.607;101.393;0.0288993;0.0143441
31.08;239;107.576;131.424;0.0330476;0.0185926
31.14;237;107.555;129.445;0.032771;0.0183126
31.2;200;107.544;92.4563;0.0276549;0.0130798
31.26;138;107.541;30.4589;0.0190819;0.00430903
31.32;147;107.547;39.453;0.0203263;0.00558143
31.38;150;107.561;42.4391;0.0207412;0.00600387
31.44;172;107.582;64.4176;0.0237832;0.00911317
31.5;201;107.611;93.3889;0.0277931;0.0132117
31.56;174;107.647;66.3534;0.0240597;0.00938703
31.62;149;107.689;41.3114;0.0206029;0.00584433
31.68;149;107.737;41.2634;0.0206029;0.00583754
31.74;173;107.79;65.2096;0.0239215;0.00922522
31.8;170;107.849;62.1505;0.0235066;0.00879245
31.86;190;107.914;82.0864;0.0262721;0.0116128
31.92;202;107.983;94.0175;0.0279314;0.0133007
31.98;203;108.056;94.9441;0.0280697;0.0134318
32.04;186;108.133;77.8666;0.025719;0.0110158
32.1;143;108.215;34.7851;0.0197732;0.00492105
32.16;138;108.3;29.6998;0.0190819;0.00420164
32.22;152;108.389;43.611;0.0210177;0.00616966
32.28;172;108.481;63.5189;0.0237832;0.00898603
32.34;212;108.576;103.424;0.0293142;0.0146314
32.4;169;108.675;60.3251;0.0233684;0.00853421
32.46;158;108.776;49.2239;0.0218473;0.00696371
32.52;116;108.88;7.11981;0.0160398;0.00100724
32.58;134;108.987;25.0131;0.0185288;0.00353861
32.64;148;109.096;38.9038;0.0204646;0.00550373
32.7;160;109.208;50.792;0.0221239;0.00718556
32.76;134;109.322;24.6778;0.0185288;0.00349118
32.82;140;109.439;30.5613;0.0193584;0.00432351
32.88;132;109.558;22.4425;0.0182522;0.00317495
32.94;146;109.679;36.3215;0.0201881;0.00513841
33;133;109.802;23.1983;0.0183905;0.00328186
33.06;139;109.927;29.0729;0.0192201;0.00411295
33.12;182;110.055;71.9454;0.0251659;0.0101781
33.18;275;110.184;164.816;0.0380254;0.0233165
33.24;297;110.316;186.684;0.0410675;0.0264103
33.3;190;110.449;79.5506;0.0262721;0.011254
33.36;195;110.585;84.4147;0.0269635;0.0119422
33.42;148;110.724;37.2765;0.0204646;0.00527351
33.48;164;110.864;53.1359;0.022677;0.00751715
33.54;173;111.007;61.9928;0.0239215;0.00877014
33.6;192;111.153;80.8471;0.0265487;0.0114375
33.66;199;111.301;87.6985;0.0275166;0.0124067
33.72;176;111.453;64.547;0.0243363;0.00913148
33.78;139;111.608;27.3923;0.0192201;0.0038752
33.84;128;111.766;16.2342;0.0176991;0.00229666
33.9;134;111.927;22.0725;0.0185288;0.00312261
33.96;114;112.093;1.90703;0.0157633;0.000269788
34.02;137;112.263;24.7375;0.0189436;0.00349961
34.08;149;112.436;36.5636;0.0206029;0.00517266
34.14;160;112.615;47.3852;0.0221239;0.00670359
34.2;154;112.798;41.202;0.0212942;0.00582885
34.26;161;112.986;48.0137;0.0222622;0.00679252
34.32;164;113.18;50.8202;0.022677;0.00718954
34.38;209;113.379;95.621;0.0288993;0.0135275
34.44;207;113.584;93.416;0.0286228;0.0132156
34.5;162;113.795;48.2048;0.0224004;0.00681954
34.56;218;114.013;103.987;0.0301438;0.0147111
34.62;236;114.238;121.762;0.0326327;0.0172258
34.68;199;114.47;84.5305;0.0275166;0.0119585
34.74;162;114.709;47.2909;0.0224004;0.00669025
34.8;133;114.957;18.0431;0.0183905;0.00255257
34.86;114;115.213;-1.21313;0.0157633;-0.000171622
34.92;111;115.478;-4.47839;0.0153485;-0.000633559
34.98;130;115.753;14.247;0.0179757;0.00201553
35.04;109;116.037;-7.03705;0.0150719;-0.000995533
35.1;160;116.331;43.6694;0.0221239;0.00617793
35.16;142;116.633;25.3672;0.019635;0.0035887
35.22;177;116.943;60.0571;0.0244746;0.00849629
35.28;186;117.26;68.7401;0.025719;0.00972468
35.34;220;117.583;102.417;0.0304204;0.014489
35.4;184;117.911;66.089;0.0254425;0.00934963
35.46;162;118.243;43.7567;0.0224004;0.00619027
35.52;186;118.579;67.421;0.025719;0.00953807
35.58;232;118.917;113.083;0.0320796;0.0159978
35.64;221;119.257;101.743;0.0305586;0.0143936
35.7;169;119.598;49.402;0.0233684;0.00698891
35.76;153;119.939;33.0609;0.021156;0.00467714
35.82;142;120.28;21.7205;0.019635;0.0030728
35.88;156;120.619;35.3813;0.0215708;0.0050054
35.94;198;120.956;77.0442;0.0273783;0.0108995
36;179;121.29;57.71;0.0247511;0.00816424
36.06;172;121.621;50.3792;0.0237832;0.00712715
36.12;192;121.947;70.0525;0.0265487;0.00991035
36.18;198;122.269;75.7308;0.0273783;0.0107136
36.24;231;122.586;108.414;0.0319414;0.0153374
36.3;238;122.896;115.104;0.0329093;0.0162838
36.36;358;123.199;234.801;0.0495022;0.0332173
36.42;422;123.495;298.505;0.0583518;0.0422295
36.48;348;123.784;224.216;0.0481195;0.0317199
36.54;250;124.064;125.936;0.0345686;0.0178162
36.6;232;124.336;107.664;0.0320796;0.0152313
36.66;191;124.598;66.4016;0.0264104;0.00939385
36.72;173;124.852;48.1481;0.0239215;0.00681153
36.78;171;125.096;45.9042;0.0236449;0.00649408
36.84;155;125.33;29.6701;0.0214325;0.00419743
36.9;152;125.554;26.4461;0.0210177;0.00374133
36.96;198;125.768;72.2324;0.0273783;0.0102187
37.02;161;125.971;35.0294;0.0222622;0.00495562
37.08;171;126.163;44.8373;0.0236449;0.00634315
37.14;148;126.344;21.6564;0.0204646;0.00306373
37.2;168;126.513;41.4868;0.0232301;0.00586914
37.26;197;126.671;70.3288;0.02724;0.00994943
37.32;250;126.817;123.183;0.0345686;0.0174267
37.38;239;126.952;112.048;0.0330476;0.0158515
37.44;174;127.074;46.9262;0.0240597;0.00663866
37.5;160;127.184;32.8164;0.0221239;0.00464254
37.56;166;127.281;38.719;0.0229535;0.00547758
37.62;162;127.366;34.634;0.0224004;0.00489968
37.68;172;127.438;44.5617;0.0237832;0.00630415
37.74;174;127.498;46.502;0.0240597;0.00657864
37.8;177;127.545;49.455;0.0244746;0.00699642
37.86;197;127.579;69.4209;0.02724;0.00982099
37.92;220;127.6;92.3996;0.0304204;0.0130718
37.98;208;127.609;80.3913;0.0287611;0.011373
38.04;170;127.604;42.3958;0.0235066;0.00599775
38.1;213;127.587;85.4133;0.0294524;0.0120834
38.16;222;127.556;94.4436;0.0306969;0.013361
38.22;265;127.513;137.487;0.0366427;0.0194503
38.28;170;127.457;42.5427;0.0235066;0.00601853
38.34;163;127.389;35.6113;0.0225387;0.00503794
38.4;156;127.307;28.6925;0.0215708;0.00405914
38.46;168;127.214;40.7861;0.0232301;0.00577002
38.52;169;127.108;41.892;0.0233684;0.00592647
38.58;196;126.99;69.0101;0.0271018;0.00976287
38.64;144;126.86;17.1401;0.0199115;0.00242482
38.7;156;126.718;29.2821;0.0215708;0.00414254
38.76;171;126.564;44.4356;0.0236449;0.00628632
38.82;218;126.399;91.6006;0.0301438;0.0129588
38.88;216;126.223;89.7769;0.0298673;0.0127008
38.94;193;126.036;66.9643;0.0266869;0.00947345
39;178;125.838;52.1624;0.0246128;0.00737943
39.06;152;125.629;26.3712;0.0210177;0.00373074
39.12;176;125.41;50.5902;0.0243363;0.00715701
39.18;129;125.181;3.81927;0.0178374;0.000540314
39.24;138;124.942;13.0581;0.0190819;0.00184733
39.3;152;124.694;27.3063;0.0210177;0.00386303
39.36;157;124.436;32.5637;0.0217091;0.00460679
39.42;135;124.17;10.8299;0.018667;0.00153211
39.48;141;123.895;17.1047;0.0194967;0.00241981
39.54;159;123.612;35.3877;0.0219856;0.00500631
39.6;178;123.321;54.6787;0.0246128;0.00773541
39.66;186;123.023;62.9772;0.025719;0.0089094
39.72;149;122.717;26.283;0.0206029;0.00371826
39.78;140;122.404;17.5957;0.0193584;0.00248927
39.84;166;122.085;43.9149;0.0229535;0.00621266
39.9;180;121.76;58.2404;0.0248894;0.00823928
39.96;168;121.428;46.5716;0.0232301;0.00658849
40.02;163;121.092;41.9082;0.0225387;0.00592876
40.08;152;120.75;31.2498;0.0210177;0.00442092
40.14;183;120.404;62.596;0.0253042;0.00885547
40.2;149;120.054;28.9463;0.0206029;0.00409505
40.26;136;119.7;16.3004;0.0188053;0.00230602
40.32;138;119.342;18.6578;0.0190819;0.00263952
40.38;147;118.982;28.018;0.0203263;0.00396371
40.44;158;118.619;39.3806;0.0218473;0.00557118
40.5;177;118.255;58.7451;0.0244746;0.00831069
40.56;159;117.889;41.1111;0.0219856;0.005816
40.62;183;117.522;65.4781;0.0253042;0.0092632
40.68;208;117.154;90.8456;0.0287611;0.0128519
40.74;195;116.787;78.213;0.0269635;0.0110648
40.8;169;116.42;52.5799;0.0233684;0.00743849
40.86;168;116.054;51.9456;0.0232301;0.00734876
40.92;142;115.69;26.3097;0.019635;0.00372204
40.98;127;115.328;11.6715;0.0175608;0.00165117
41.04;128;114.97;13.0305;0.0176991;0.00184343
41.1;119;114.614;4.38603;0.0164546;0.000620493
41.16;126;114.262;11.738;0.0174226;0.00166057
41.22;114;113.913;0.0865388;0.0157633;1.22427e-05
41.28;130;113.568;16.432;0.0179757;0.00232465
41.34;156;113.225;42.7749;0.0215708;0.00605137
41.4;174;112.885;61.1154;0.0240597;0.00864601
41.46;191;112.546;78.454;0.0264104;0.0110989
41.52;190;112.209;77.791;0.0262721;0.0110051
41.58;169;111.873;57.1267;0.0233684;0.00808173
41.64;154;111.539;42.4615;0.0212942;0.00600704
41.7;168;111.204;56.7956;0.0232301;0.00803489
41.76;159;110.871;48.1293;0.0219856;0.00680886
41.82;133;110.537;22.4629;0.0183905;0.00317782
41.88;152;110.203;41.7965;0.0210177;0.00591297
41.94;159;109.869;49.1306;0.0219856;0.00695052
42;164;109.535;54.4653;0.022677;0.00770521
42.06;176;109.199;66.8007;0.0243363;0.00945032
42.12;153;108.863;44.1373;0.021156;0.00624411
42.18;147;108.525;38.4751;0.0203263;0.00544308
42.24;156;108.186;47.8143;0.0215708;0.00676429
42.3;203;107.845;95.155;0.0280697;0.0134616
42.36;162;107.502;54.4976;0.0224004;0.00770979
42.42;149;107.158;41.842;0.0206029;0.0059194
42.48;139;106.812;32.1885;0.0192201;0.00455371
42.54;138;106.463;31.5371;0.0190819;0.00446156
42.6;124;106.112;17.8879;0.017146;0.00253061
42.66;131;105.759;25.2411;0.0181139;0.00357087
42.72;135;105.403;29.5967;0.018667;0.00418706
42.78;152;105.045;46.9548;0.0210177;0.00664271
42.84;173;104.684;68.3156;0.0239215;0.00966462
42.9;207;104.321;102.679;0.0286228;0.014526
42.96;166;103.955;62.045;0.0229535;0.00877753
43.02;126;103.586;22.4139;0.0174226;0.0031709
43.08;152;103.215;48.7854;0.0210177;0.00690169
43.14;145;102.84;42.1598;0.0200498;0.00596435
43.2;168;102.463;65.5368;0.0232301;0.00927151
43.26;178;102.083;75.9165;0.0246128;0.0107399
43.32;171;101.701;69.299;0.0236449;0.00980374
43.38;171;101.316;69.684;0.0236449;0.00985821
43.44;166;100.928;65.0716;0.0229535;0.00920569
43.5;141;100.538;40.4616;0.0194967;0.00572411
43.56;137;100.146;36.8539;0.0189436;0.00521373
43.62;165;99.7515;65.2485;0.0228153;0.00923072
43.68;153;99.3548;53.6452;0.021156;0.0075892
43.74;140;98.9561;41.0439;0.0193584;0.00580649
43.8;141;98.5557;42.4443;0.0194967;0.00600461
43.86;130;98.1535;31.8465;0.0179757;0.00450533
43.92;124;97.7499;26.2501;0.017146;0.0037136
43.98;111;97.3451;13.6549;0.0153485;0.00193177
44.04;142;96.9391;45.0609;0.019635;0.00637477
44.1;156;96.5323;59.4677;0.0215708;0.00841292
44.16;127;96.1247;30.8753;0.0175608;0.00436793
44.22;103;95.7168;7.28324;0.0142423;0.00103036
44.28;123;95.3086;27.6914;0.0170077;0.00391751
44.34;124;94.9004;29.0996;0.017146;0.00411673
44.4;117;94.4925;22.5075;0.0161781;0.00318414
44.46;150;94.0851;55.9149;0.0207412;0.0079103
44.52;160;93.6785;66.3215;0.0221239;0.00938252
44.58;169;93.2729;75.7271;0.0233684;0.0107131
44.64;154;92.8687;61.1313;0.0212942;0.00864826
44.7;108;92.4662;15.5338;0.0149336;0.00219757
44.76;113;92.0656;20.9344;0.015625;0.00296159
44.82;99;91.6674;7.33259;0.0136892;0.00103734
44.88;108;91.2719;16.7281;0.0149336;0.00236654
44.94;103;90.8793;12.1207;0.0142423;0.00171472
45;114;90.4901;23.5099;0.0157633;0.00332595
45.06;119;90.1046;28.8954;0.0164546;0.00408784
45.12;98;89.7232;8.27679;0.0135509;0.00117092
45.18;99;89.3462;9.65377;0.0136892;0.00136572
45.24;111;88.9739;22.0261;0.0153485;0.00311603
45.3;117;88.6065;28.3935;0.0161781;0.00401684
45.36;124;88.244;35.756;0.017146;0.00505841
45.42;132;87.8866;44.1134;0.0182522;0.00624073
45.48;130;87.5346;42.4654;0.0179757;0.00600759
45.54;151;87.1881;63.8119;0.0208794;0.00902749
45.6;112;86.8472;25.1528;0.0154867;0.00355837
45.66;114;86.5123;27.4877;0.0157633;0.00388869
45.72;112;86.1834;25.8166;0.0154867;0.00365228
45.78;101;85.8609;15.1391;0.0139657;0.00214173
45.84;101;85.5449;15.4551;0.0139657;0.00218644
45.9;94;85.2357;8.76434;0.0129978;0.00123989
45.96;95;84.9334;10.0666;0.0131361;0.00142412
46.02;105;84.6382;20.3618;0.0145188;0.00288059
46.08;113;84.35;28.65;0.015625;0.00405313
46.14;107;84.0687;22.9313;0.0147954;0.0032441
46.2;103;83.7944;19.2056;0.0142423;0.00271702
46.26;93;83.527;9.47299;0.0128595;0.00134015
46.32;102;83.2666;18.7334;0.014104;0.00265023
46.38;95;83.013;11.987;0.0131361;0.0016958
46.44;92;82.7664;9.23361;0.0127212;0.00130628
46.5;95;82.5267;12.4733;0.0131361;0.0017646
46.56;99;82.2939;16.7061;0.0136892;0.00236342
46.62;82;82.068;-0.0680117;0.0113385;-9.62163e-06
46.68;94;81.8491;12.1509;0.0129978;0.001719
46.74;90;81.637;8.36299;0.0124447;0.00118311
46.8;104;81.4318;22.5682;0.0143805;0.00319273
46.86;108;81.2332;26.7668;0.0149336;0.00378671
46.92;92;81.0412;10.9588;0.0127212;0.00155034
46.98;103;80.8558;22.1442;0.0142423;0.00313275
47.04;92;80.6768;11.3232;0.0127212;0.0016019
47.1;101;80.5041;20.4959;0.0139657;0.00289956
47.16;118;80.3376;37.6624;0.0163164;0.00532811
47.22;108;80.1774;27.8226;0.0149336;0.00393608
47.28;124;80.0232;43.9768;0.017146;0.00622141
47.34;113;79.8751;33.1249;0.015625;0.00468619
47.4;126;79.733;46.267;0.0174226;0.0065454
47.46;134;79.5969;54.4031;0.0185288;0.00769642
47.52;106;79.4667;26.5333;0.0146571;0.00375367
47.58;89;79.3425;9.65749;0.0123064;0.00136625
47.64;99;79.2242;19.7758;0.0136892;0.00279769
47.7;98;79.1118;18.8882;0.0135509;0.00267212
47.76;105;79.0054;25.9946;0.0145188;0.00367747
47.82;91;78.9048;12.0952;0.012583;0.0017111
47.88;91;78.8103;12.1897;0.012583;0.00172448
47.94;106;78.7217;27.2783;0.0146571;0.00385907
48;95;78.6391;16.3609;0.0131361;0.00231458
48.06;94;78.5625;15.4375;0.0129978;0.00218395
48.12;108;78.492;29.508;0.0149336;0.0041745
48.18;102;78.4276;23.5724;0.014104;0.00333479
48.24;94;78.3694;15.6306;0.0129978;0.00221127
48.3;105;78.3174;26.6826;0.0145188;0.0037748
48.36;94;78.2716;15.7284;0.0129978;0.0022251
48.42;93;78.2322;14.7678;0.0128595;0.0020892
48.48;101;78.1993;22.8007;0.0139657;0.00322562
48.54;77;78.1728;-1.17285;0.0106471;-0.000165923
48.6;95;78.153;16.847;0.0131361;0.00238335
48.66;91;78.1396;12.8604;0.012583;0.00181936
48.72;94;78.1325;15.8675;0.0129978;0.00224477
48.78;100;78.1316;21.8684;0.0138274;0.00309373
48.84;84;78.1366;5.8634;0.011615;0.000829497
48.9;98;78.1474;19.8526;0.0135509;0.00280856
48.96;96;78.1637;17.8363;0.0132743;0.0025233
49.02;97;78.1855;18.8145;0.0134126;0.0026617
49.08;92;78.2125;13.7875;0.0127212;0.00195053
49.14;96;78.2445;17.7555;0.0132743;0.00251187
49.2;122;78.2815;43.7185;0.0168695;0.00618487
49.26;123;78.3232;44.6768;0.0170077;0.00632043
49.32;100;78.3696;21.6304;0.0138274;0.00306006
49.38;96;78.4204;17.5796;0.0132743;0.00248699
49.44;93;78.4755;14.5245;0.0128595;0.00205478
49.5;118;78.5349;39.4651;0.0163164;0.00558313
49.56;101;78.5984;22.4016;0.0139657;0.00316915
49.62;96;78.666;17.334;0.0132743;0.00245225
49.68;108;78.7374;29.2626;0.0149336;0.00413979
49.74;104;78.8126;25.1874;0.0143805;0.00356326
49.8;91;78.8916;12.1084;0.012583;0.00171298
49.86;89;78.9742;10.0258;0.0123064;0.00141836
49.92;95;79.0603;15.9397;0.0131361;0.00225499
49.98;93;79.1498;13.8502;0.0128595;0.00195939
50.04;114;79.2424;34.7576;0.0157633;0.00491717
50.1;128;79.3378;48.6622;0.0176991;0.00688426
50.16;109;79.4357;29.5643;0.0150719;0.00418247
50.22;108;79.536;28.464;0.0149336;0.00402681
50.28;121;79.6383;41.3617;0.0167312;0.00585145
50.34;109;79.7425;29.2575;0.0150719;0.00413906
50.4;127;79.8484;47.1516;0.0175608;0.00667055
50.46;99;79.9557;19.0443;0.0136892;0.0026942
50.52;91;80.0643;10.9357;0.012583;0.00154708
50.58;95;80.1739;14.8261;0.0131361;0.00209745
50.64;79;80.2845;-1.28447;0.0109237;-0.000181714
50.7;86;80.3957;5.60432;0.0118916;0.000792845
50.76;86;80.5073;5.49267;0.0118916;0.00077705
50.82;104;80.6192;23.3808;0.0143805;0.00330769
50.88;91;80.7309;10.2691;0.012583;0.00145277
50.94;97;80.8423;16.1577;0.0134126;0.00228583
51;118;80.9531;37.0469;0.0163164;0.00524103
51.06;106;81.0632;24.9368;0.0146571;0.00352782
51.12;113;81.1721;31.8279;0.015625;0.0045027
51.18;120;81.2798;38.7202;0.0165929;0.00547775
51.24;104;81.386;22.614;0.0143805;0.00319921
51.3;105;81.4905;23.5095;0.0145188;0.0033259
51.36;122;81.593;40.407;0.0168695;0.00571638
51.42;107;81.6935;25.3065;0.0147954;0.00358012
51.48;95;81.7917;13.2083;0.0131361;0.00186859
51.54;98;81.8874;16.1126;0.0135509;0.00227946
51.6;100;81.9804;18.0196;0.0138274;0.00254924
51.66;112;82.0706;29.9294;0.0154867;0.00423411
51.72;133;82.1579;50.8421;0.0183905;0.00719265
51.78;118;82.242;35.758;0.0163164;0.0050587
51.84;141;82.3228;58.6772;0.0194967;0.00830108
51.9;122;82.4001;39.5999;0.0168695;0.0056022
51.96;117;82.4739;34.5261;0.0161781;0.00488441
52.02;134;82.5441;51.4559;0.0185288;0.00727948
52.08;131;82.6105;48.3895;0.0181139;0.00684568
52.14;117;82.673;34.327;0.0161781;0.00485625
52.2;104;82.7315;21.2685;0.0143805;0.00300886
52.26;102;82.786;19.214;0.014104;0.0027182
52.32;111;82.8365;28.1635;0.0153485;0.0039843
52.38;115;82.8828;32.1172;0.0159015;0.00454363
52.44;120;82.9248;37.0752;0.0165929;0.00524503
52.5;135;82.9627;52.0373;0.018667;0.00736173
52.56;126;82.9962;43.0038;0.0174226;0.00608375
52.62;113;83.0255;29.9745;0.015625;0.0042405
52.68;126;83.0504;42.9496;0.0174226;0.00607609
52.74;121;83.071;37.929;0.0167312;0.00536582
52.8;117;83.0873;33.9127;0.0161781;0.00479763
52.86;100;83.0993;16.9007;0.0138274;0.00239094
52.92;85;83.107;1.89295;0.0117533;0.000267797
52.98;115;83.1105;31.8895;0.0159015;0.00451142
53.04;113;83.1097;29.8903;0.015625;0.00422859
53.1;108;83.1047;24.8953;0.0149336;0.00352194
53.16;92;83.0956;8.90445;0.0127212;0.00125971
53.22;111;83.0823;27.9177;0.0153485;0.00394953
53.28;112;83.0649;28.9351;0.0154867;0.00409345
53.34;112;83.0436;28.9564;0.0154867;0.00409647
53.4;119;83.0183;35.9817;0.0164546;0.00509034
53.46;105;82.9891;22.0109;0.0145188;0.00311389
53.52;106;82.9561;23.0439;0.0146571;0.00326002
53.58;119;82.9194;36.0806;0.0164546;0.00510433
53.64;102;82.8791;19.1209;0.014104;0.00270504
53.7;108;82.8352;25.1648;0.0149336;0.00356007
53.76;120;82.7879;37.2121;0.0165929;0.0052644
53.82;112;82.7373;29.2627;0.0154867;0.0041398
53.88;124;82.6835;41.3165;0.017146;0.00584506
53.94;133;82.6266;50.3734;0.0183905;0.00712634
54;110;82.5668;27.4332;0.0152102;0.00388099
54.06;110;82.5042;27.4958;0.0152102;0.00388984
54.12;109;82.4389;26.5611;0.0150719;0.0037576
54.18;99;82.3713;16.6287;0.0136892;0.00235247
54.24;107;82.3013;24.6987;0.0147954;0.00349413
54.3;89;82.2293;6.77073;0.0123064;0.000957857
54.36;97;82.1553;14.8447;0.0134126;0.00210008
54.42;89;82.0796;6.92035;0.0123064;0.000979024
54.48;94;82.0024;11.9976;0.0129978;0.0016973
54.54;90;81.9236;8.07637;0.0124447;0.00114257
54.6;96;81.8434;14.1566;0.0132743;0.00200274
54.66;109;81.7617;27.2383;0.0150719;0.00385341
54.72;94;81.6786;12.3214;0.0129978;0.00174311
54.78;98;81.594;16.406;0.0135509;0.00232095
54.84;113;81.5081;31.4919;0.015625;0.00445516
54.9;99;81.4208;17.5792;0.0136892;0.00248693
54.96;94;81.3322;12.6678;0.0129978;0.00179211
55.02;89;81.2424;7.75763;0.0123064;0.00109747
55.08;91;81.1513;9.84872;0.012583;0.0013933
55.14;86;81.059;4.94098;0.0118916;0.000699002
55.2;82;80.9656;1.03437;0.0113385;0.000146332
55.26;99;80.871;18.129;0.0136892;0.00256471
55.32;82;80.7751;1.22488;0.0113385;0.000173284
55.38;105;80.6777;24.3223;0.0145188;0.00344088
55.44;86;80.5787;5.42126;0.0118916;0.000766947
55.5;93;80.478;12.522;0.0128595;0.00177149
55.56;91;80.3755;10.6245;0.012583;0.00150305
55.62;104;80.271;23.729;0.0143805;0.00335695
55.68;114;80.1644;33.8356;0.0157633;0.00478673
55.74;126;80.0557;45.9443;0.0174226;0.00649975
55.8;104;79.9447;24.0553;0.0143805;0.00340311
55.86;126;79.8314;46.1686;0.0174226;0.00653149
55.92;110;79.7156;30.2844;0.0152102;0.00428435
55.98;121;79.5973;41.4027;0.0167312;0.00585725
56.04;107;79.4764;27.5236;0.0147954;0.00389377
56.1;95;79.3529;15.6471;0.0131361;0.00221359
56.16;92;79.2268;12.7732;0.0127212;0.00180703
56.22;90;79.098;10.902;0.0124447;0.00154231
56.28;85;78.9664;6.03363;0.0117533;0.000853578
56.34;89;78.832;10.168;0.0123064;0.00143847
56.4;83;78.6949;4.30512;0.0114768;0.000609047
56.46;95;78.5549;16.4451;0.0131361;0.00232649
56.52;107;78.4121;28.5879;0.0147954;0.00404434
56.58;92;78.2664;13.7336;0.0127212;0.00194289
56.64;99;78.1179;20.8821;0.0136892;0.0029542
56.7;103;77.9664;25.0336;0.0142423;0.00354151
56.76;107;77.8121;29.1879;0.0147954;0.00412922
56.82;100;77.6549;22.3451;0.0138274;0.00316117
56.88;80;77.4948;2.50523;0.0110619;0.000354415
56.94;98;77.3318;20.6682;0.0135509;0.00292393
57;95;77.166;17.834;0.0131361;0.00252298
57.06;107;76.9974;30.0026;0.0147954;0.00424448
57.12;91;76.8259;14.1741;0.012583;0.00200521
57.18;82;76.6517;5.34831;0.0113385;0.000756627
57.24;109;76.4747;32.5253;0.0150719;0.00460136
57.3;100;76.2951;23.7049;0.0138274;0.00335354
57.36;101;76.1128;24.8872;0.0139657;0.0035208
57.42;110;75.928;34.072;0.0152102;0.00482018
57.48;110;75.7406;34.2594;0.0152102;0.00484669
57.54;111;75.5507;35.4493;0.0153485;0.00501502
57.6;113;75.3585;37.6415;0.015625;0.00532515
57.66;83;75.164;7.83596;0.0114768;0.00110855
57.72;89;74.9674;14.0326;0.0123064;0.0019852
57.78;94;74.7687;19.2313;0.0129978;0.00272066
57.84;94;74.568;19.432;0.0129978;0.00274905
57.9;72;74.3655;-2.36546;0.00995575;-0.000334641
57.96;85;74.1612;10.8388;0.0117533;0.00153337
58.02;80;73.9552;6.04483;0.0110619;0.000855163
58.08;80;73.7474;6.25262;0.0110619;0.000884559
58.14;106;73.5378;32.4622;0.0146571;0.00459244
58.2;103;73.3264;29.6736;0.0142423;0.00419793
58.26;119;73.1132;45.8868;0.0164546;0.00649162
58.32;105;72.8982;32.1018;0.0145188;0.00454146
58.38;105;72.6813;32.3187;0.0145188;0.00457214
58.44;104;72.4626;31.5374;0.0143805;0.0044616
58.5;93;72.2421;20.7579;0.0128595;0.00293662
58.56;89;72.0199;16.9801;0.0123064;0.00240218
58.62;91;71.7959;19.2041;0.012583;0.0027168
58.68;87;71.5703;15.4297;0.0120299;0.00218285
58.74;96;71.343;24.657;0.0132743;0.00348824
58.8;85;71.114;13.886;0.0117533;0.00196445
58.86;99;70.8836;28.1164;0.0136892;0.00397764
58.92;97;70.6516;26.3484;0.0134126;0.00372752
58.98;97;70.4182;26.5818;0.0134126;0.00376054
59.04;102;70.1834;31.8166;0.014104;0.0045011
59.1;113;69.9474;43.0526;0.015625;0.00609067
59.16;106;69.7101;36.2899;0.0146571;0.00513394
59.22;90;69.4717;20.5283;0.0124447;0.00290414
59.28;102;69.2323;32.7677;0.014104;0.00463565
59.34;90;68.992;21.008;0.0124447;0.002972
59.4;91;68.7509;22.2491;0.012583;0.00314758
59.46;106;68.5092;37.4908;0.0146571;0.00530384
59.52;106;68.2668;37.7332;0.0146571;0.00533812
59.58;109;68.0241;40.9759;0.0150719;0.00579688
59.64;88;67.781;20.219;0.0121681;0.00286038
59.7;95;67.5378;27.4622;0.0131361;0.00388508
59.76;77;67.2947;9.70533;0.0106471;0.00137302
59.82;90;67.0517;22.9483;0.0124447;0.00324651
59.88;78;66.809;11.191;0.0107854;0.00158319
59.94;91;66.5669;24.4331;0.012583;0.00345656
60;78;66.3252;11.6748;0.0107854;0.00165164
60.06;68;66.084;1.91604;0.00940265;0.000271063
60.12;80;65.8431;14.1569;0.0110619;0.00200278
60.18;82;65.6025;16.3975;0.0113385;0.00231976
60.24;76;65.3622;10.6378;0.0105088;0.00150493
60.3;89;65.1221;23.8779;0.0123064;0.00337801
60.36;95;64.8821;30.1179;0.0131361;0.00426078
60.42;82;64.6423;17.3577;0.0113385;0.0024556
60.48;93;64.4025;28.5975;0.0128595;0.00404569
60.54;76;64.1628;11.8372;0.0105088;0.00167461
60.6;78;63.9231;14.0769;0.0107854;0.00199146
60.66;78;63.6834;14.3166;0.0107854;0.00202537
60.72;76;63.4438;12.5562;0.0105088;0.00177633
60.765;82;63.264;18.736;0.0113385;0.00265058